ID,Acc,condition,block,orientation,foreperiod,RT,counterbalance,extFixationDuration,action_trigger.rt,trial,trial_bl,seqOri,prevOri,numForeperiod,numLogFP,logFP,logRT,invRT,RTzscore,logRTzscore
001,1,action,0,right,2800,532,action-external,NA,7754,1,1,NA,NA,2800,3.4471580313422194,3.44715803134222,2.7259116322950483,0.0018796992481203006,0.18935129340873663,0.2737771819149782
001,1,action,0,right,2800,568,action-external,NA,585,2,2,same,right,2800,3.4471580313422194,3.44715803134222,2.754348335711019,0.0017605633802816902,0.5928572003099211,0.6561480167618499
001,1,action,0,left,2800,333,action-external,NA,557,3,3,different,right,2800,3.4471580313422194,3.44715803134222,2.5224442335063197,0.003003003003003003,-2.0411396919616998,-2.462123600989197
001,1,action,0,right,2800,322,action-external,NA,506,4,4,different,left,2800,3.4471580313422194,3.44715803134222,2.507855871695831,0.003105590062111801,-2.1644331635148393,-2.65828431634807
001,1,action,0,right,2800,553,action-external,NA,917,5,5,same,right,2800,3.4471580313422194,3.44715803134222,2.7427251313046983,0.0018083182640144665,0.42472973910109424,0.49985794658639593
001,1,action,0,left,2800,576,action-external,NA,506,6,6,different,right,2800,3.4471580313422194,3.44715803134222,2.760422483423212,0.001736111111111111,0.6825251796212954,0.7378233395909398
001,1,action,0,left,2800,605,action-external,NA,544,7,7,same,left,2800,3.4471580313422194,3.44715803134222,2.781755374652469,0.001652892561983471,1.0075716046250274,1.0246735876561723
001,1,action,0,left,2800,535,action-external,NA,108,8,8,same,left,2800,3.4471580313422194,3.44715803134222,2.7283537820212285,0.001869158878504673,0.22297678565050202,0.3066152650064287
001,1,action,0,left,2800,536,action-external,NA,152,9,9,same,left,2800,3.4471580313422194,3.44715803134222,2.72916478969277,0.0018656716417910447,0.2341852830644238,0.3175203856140612
001,1,action,0,right,2800,456,action-external,NA,19,10,10,different,left,2800,3.4471580313422194,3.44715803134222,2.658964842664435,0.0021929824561403508,-0.6624945100493195,-0.6264150614306083
001,1,action,0,left,2800,534,action-external,NA,185,11,11,different,right,2800,3.4471580313422194,3.44715803134222,2.727541257028556,0.0018726591760299626,0.21176828823658023,0.2956897419161694
001,1,action,0,right,2800,516,action-external,NA,219,12,12,different,left,2800,3.4471580313422194,3.44715803134222,2.7126497016272113,0.001937984496124031,0.01001533478598799,0.09545216909741579
001,1,action,0,right,2800,534,action-external,NA,21,13,13,same,right,2800,3.4471580313422194,3.44715803134222,2.727541257028556,0.0018726591760299626,0.21176828823658023,0.2956897419161694
001,1,action,0,left,2800,444,action-external,NA,2151,14,14,different,right,2800,3.4471580313422194,3.44715803134222,2.6473829701146196,0.0022522522522522522,-0.7969964790163809,-0.7821493675905736
001,1,action,0,left,2800,535,action-external,NA,39,15,15,same,left,2800,3.4471580313422194,3.44715803134222,2.7283537820212285,0.001869158878504673,0.22297678565050202,0.3066152650064287
001,1,action,0,left,2800,553,action-external,NA,141,16,16,same,left,2800,3.4471580313422194,3.44715803134222,2.7427251313046983,0.0018083182640144665,0.42472973910109424,0.49985794658639593
001,1,action,0,right,2800,502,action-external,NA,636,17,17,different,left,2800,3.4471580313422194,3.44715803134222,2.7007037171450192,0.00199203187250996,-0.14690362900891707,-0.06517812593735314
001,1,action,0,right,2800,368,action-external,NA,367,18,18,same,right,2800,3.4471580313422194,3.44715803134222,2.5658478186735176,0.002717391304347826,-1.648842282474437,-1.8785023262950273
001,1,action,0,left,2800,549,action-external,NA,1423,19,19,different,right,2800,3.4471580313422194,3.44715803134222,2.739572344450092,0.0018214936247723133,0.3798957494454071,0.45746436375593863
001,1,action,0,left,2800,639,action-external,NA,2284,20,20,same,left,2800,3.4471580313422194,3.44715803134222,2.8055008581584002,0.001564945226917058,1.3886605166983683,1.3439644779956728
001,1,action,0,left,2800,422,action-external,NA,561,21,21,same,left,2800,3.4471580313422194,3.44715803134222,2.625312450961674,0.002369668246445498,-1.0435834221226603,-1.0789180439933457
001,1,action,0,left,2800,476,action-external,NA,374,22,22,same,left,2800,3.4471580313422194,3.44715803134222,2.677606952720493,0.0021008403361344537,-0.43832456177088364,-0.37574609037684786
001,1,action,0,left,2800,671,action-external,NA,368,23,23,same,left,2800,3.4471580313422194,3.44715803134222,2.826722520168992,0.0014903129657228018,1.7473324339438656,1.6293190952707148
001,1,action,0,left,2800,496,action-external,NA,270,24,24,same,left,2800,3.4471580313422194,3.44715803134222,2.6954816764901977,0.0020161290322580645,-0.21415461349244783,-0.13539569003330312
001,1,action,0,right,2800,414,action-external,NA,302,25,25,different,left,2800,3.4471580313422194,3.44715803134222,2.617000341120899,0.0024154589371980675,-1.1332514014340347,-1.1906858650612044
001,1,action,0,left,2800,551,action-external,NA,539,26,26,different,right,2800,3.4471580313422194,3.44715803134222,2.741151598851785,0.0018148820326678765,0.40231274427325064,0.47869962493153
001,1,action,0,right,2800,465,action-external,NA,466,27,27,different,left,2800,3.4471580313422194,3.44715803134222,2.667452952889954,0.002150537634408602,-0.5616180333240234,-0.5122806715990056
001,1,action,0,right,2800,508,action-external,NA,1004,28,28,same,right,2800,3.4471580313422194,3.44715803134222,2.7058637122839193,0.001968503937007874,-0.07965264452538634,0.004205150323809417
001,1,action,0,right,2800,557,action-external,NA,700,29,29,same,right,2800,3.4471580313422194,3.44715803134222,2.745855195173729,0.0017953321364452424,0.46956372875678143,0.541945987426358
001,1,action,0,left,2800,910,action-external,NA,382,30,30,different,right,2800,3.4471580313422194,3.44715803134222,2.9590413923210934,0.001098901098901099,4.4261633158711735,3.4085294654284812
001,1,action,0,right,2800,558,action-external,NA,1702,32,32,different,left,2800,3.4471580313422194,3.44715803134222,2.7466341989375787,0.0017921146953405018,0.4807722261707032,0.5524207712005138
001,1,action,0,left,2800,485,action-external,NA,471,33,33,different,right,2800,3.4471580313422194,3.44715803134222,2.6857417386022635,0.002061855670103093,-0.33744808504558754,-0.2663626353605329
001,1,action,0,right,2800,566,action-external,NA,498,34,34,different,left,2800,3.4471580313422194,3.44715803134222,2.7528164311882715,0.0017667844522968198,0.5704402054820775,0.6355494402426173
001,1,action,0,right,2800,503,action-external,NA,398,35,35,same,right,2800,3.4471580313422194,3.44715803134222,2.7015679850559273,0.0019880715705765406,-0.1356951315949953,-0.05355684769735523
001,1,action,0,right,2800,459,action-external,NA,668,37,37,same,right,2800,3.4471580313422194,3.44715803134222,2.661812685537261,0.002178649237472767,-0.6288690178075541,-0.5881218724886116
001,1,action,0,right,2800,473,action-external,NA,351,38,38,same,right,2800,3.4471580313422194,3.44715803134222,2.6748611407378116,0.0021141649048625794,-0.471950054012649,-0.41266733278643153
001,1,action,0,right,2800,552,action-external,NA,339,39,39,same,right,2800,3.4471580313422194,3.44715803134222,2.741939077729199,0.0018115942028985507,0.41352124168717247,0.4892883683374192
001,1,action,0,left,2800,521,action-external,NA,373,40,40,different,right,2800,3.4471580313422194,3.44715803134222,2.7168377232995247,0.0019193857965451055,0.06605782185559694,0.15176591685412277
001,1,action,0,left,2800,585,action-external,NA,351,41,41,same,left,2800,3.4471580313422194,3.44715803134222,2.7671558660821804,0.0017094017094017094,0.7834016563465915,0.8283629886842772
001,1,action,0,right,2800,415,action-external,NA,452,42,42,different,left,2800,3.4471580313422194,3.44715803134222,2.6180480967120925,0.0024096385542168677,-1.1220429040201128,-1.176597341006229
001,1,action,0,right,2800,535,action-external,NA,409,43,43,same,right,2800,3.4471580313422194,3.44715803134222,2.7283537820212285,0.001869158878504673,0.22297678565050202,0.3066152650064287
001,1,action,0,right,2800,452,action-external,NA,302,44,44,same,right,2800,3.4471580313422194,3.44715803134222,2.655138434811382,0.0022123893805309734,-0.7073284997050066,-0.6778664109008395
001,1,action,0,left,2800,485,action-external,NA,501,45,45,different,right,2800,3.4471580313422194,3.44715803134222,2.6857417386022635,0.002061855670103093,-0.33744808504558754,-0.2663626353605329
001,1,action,0,left,2800,574,action-external,NA,420,46,46,same,left,2800,3.4471580313422194,3.44715803134222,2.7589118923979736,0.0017421602787456446,0.6601081847934519,0.7175113525443635
001,1,action,0,left,2800,702,action-external,NA,301,47,47,same,left,2800,3.4471580313422194,3.44715803134222,2.846337112129805,0.0014245014245014246,2.094795853775441,1.8930644314837966
001,1,action,0,left,2800,392,action-external,NA,357,48,48,same,left,2800,3.4471580313422194,3.44715803134222,2.593286067020457,0.002551020408163265,-1.379838344540314,-1.509557101748963
001,1,action,0,right,2800,434,action-external,NA,338,49,49,different,left,2800,3.4471580313422194,3.44715803134222,2.637489729512511,0.002304147465437788,-0.9090814531555989,-0.915177680086346
001,1,action,0,right,2800,556,action-external,NA,317,50,50,same,right,2800,3.4471580313422194,3.44715803134222,2.7450747915820575,0.0017985611510791368,0.4583552313428596,0.531452381029728
001,1,action,0,left,2800,459,action-external,NA,540,51,51,different,right,2800,3.4471580313422194,3.44715803134222,2.661812685537261,0.002178649237472767,-0.6288690178075541,-0.5881218724886116
001,1,action,0,left,2800,543,action-external,NA,404,52,52,same,left,2800,3.4471580313422194,3.44715803134222,2.734799829588847,0.001841620626151013,0.3126447649618763,0.39329129611447705
001,1,action,0,left,2800,450,action-external,NA,268,53,53,same,left,2800,3.4471580313422194,3.44715803134222,2.6532125137753435,0.0022222222222222222,-0.7297454945328502,-0.703763084774282
001,1,action,0,right,2800,495,action-external,NA,148,54,54,different,left,2800,3.4471580313422194,3.44715803134222,2.694605198933569,0.00202020202020202,-0.22536311090636962,-0.14718114385860398
001,1,action,0,right,2800,456,action-external,NA,908,56,56,same,right,2800,3.4471580313422194,3.44715803134222,2.658964842664435,0.0021929824561403508,-0.6624945100493195,-0.6264150614306083
001,1,action,0,left,2800,529,action-external,NA,456,57,57,different,right,2800,3.4471580313422194,3.44715803134222,2.7234556720351857,0.001890359168241966,0.15572580116697127,0.2407533970838926
001,1,action,0,left,2800,493,action-external,NA,399,58,58,same,left,2800,3.4471580313422194,3.44715803134222,2.69284691927723,0.002028397565922921,-0.2477801057342132,-0.17082364736029007
001,1,action,0,right,2800,495,action-external,NA,1387,59,59,different,left,2800,3.4471580313422194,3.44715803134222,2.694605198933569,0.00202020202020202,-0.22536311090636962,-0.14718114385860398
001,1,action,0,right,2800,400,action-external,NA,404,60,60,same,right,2800,3.4471580313422194,3.44715803134222,2.6020599913279625,0.0025,-1.2901703652289398,-1.3915795460080989
001,1,action,0,left,2800,614,action-external,NA,337,61,61,different,right,2800,3.4471580313422194,3.44715803134222,2.788168371141168,0.0016286644951140066,1.1084480813503235,1.1109052012642615
001,1,action,0,right,2800,447,action-external,NA,523,62,62,different,left,2800,3.4471580313422194,3.44715803134222,2.6503075231319366,0.0022371364653243847,-0.7633709867746156,-0.742824704586303
001,1,action,0,left,2800,432,action-external,NA,943,63,63,different,right,2800,3.4471580313422194,3.44715803134222,2.635483746814912,0.0023148148148148147,-0.9314984479834424,-0.9421508938076837
001,1,action,0,left,2800,522,action-external,NA,431,64,64,same,left,2800,3.4471580313422194,3.44715803134222,2.717670503002262,0.0019157088122605363,0.07726631926951874,0.16296379255445467
001,1,action,0,right,2800,526,action-external,NA,301,65,65,different,left,2800,3.4471580313422194,3.44715803134222,2.7209857441537393,0.0019011406844106464,0.1221003089252059,0.2075417982489229
001,1,action,0,left,2800,513,action-external,NA,418,66,66,different,right,2800,3.4471580313422194,3.44715803134222,2.7101173651118162,0.001949317738791423,-0.02361015745577738,0.061401399803214525
001,1,action,0,left,2800,467,action-external,NA,321,67,67,same,left,2800,3.4471580313422194,3.44715803134222,2.6693168805661123,0.0021413276231263384,-0.5392010384961797,-0.4872175842501899
001,1,action,0,right,2800,546,action-external,NA,285,68,68,different,left,2800,3.4471580313422194,3.44715803134222,2.7371926427047373,0.0018315018315018315,0.3462702572036417,0.42546598019693666
001,1,action,0,left,2800,468,action-external,NA,283,69,69,different,right,2800,3.4471580313422194,3.44715803134222,2.670245853074124,0.002136752136752137,-0.5279925410822579,-0.4747262631486439
001,1,action,0,right,2800,551,action-external,NA,7,70,70,different,left,2800,3.4471580313422194,3.44715803134222,2.741151598851785,0.0018148820326678765,0.40231274427325064,0.47869962493153
001,1,action,0,right,2800,715,action-external,NA,391,71,71,same,right,2800,3.4471580313422194,3.44715803134222,2.8543060418010806,0.0013986013986013986,2.2405063201564244,2.0002177201990534
001,1,action,0,left,2800,569,action-external,NA,320,72,72,different,right,2800,3.4471580313422194,3.44715803134222,2.7551122663950713,0.0017574692442882249,0.6040656977238429,0.6664201221164483
001,1,action,0,left,2800,650,action-external,NA,436,73,73,same,left,2800,3.4471580313422194,3.44715803134222,2.8129133566428557,0.0015384615384615385,1.5119539882515078,1.4436357792833814
001,1,action,0,right,2800,451,action-external,NA,1773,74,74,different,left,2800,3.4471580313422194,3.44715803134222,2.6541765418779604,0.0022172949002217295,-0.7185369971189284,-0.6908003926850704
001,1,action,0,right,2800,389,action-external,NA,318,75,75,same,right,2800,3.4471580313422194,3.44715803134222,2.5899496013257077,0.002570694087403599,-1.4134638367820793,-1.554420500803257
001,1,action,0,right,2800,488,action-external,NA,173,76,76,same,right,2800,3.4471580313422194,3.44715803134222,2.6884198220027105,0.0020491803278688526,-0.3038225928038221,-0.23035209747788427
001,1,action,0,left,2800,467,action-external,NA,155,77,77,different,right,2800,3.4471580313422194,3.44715803134222,2.6693168805661123,0.0021413276231263384,-0.5392010384961797,-0.4872175842501899
001,1,action,0,right,2800,351,action-external,NA,619,78,78,different,left,2800,3.4471580313422194,3.44715803134222,2.545307116465824,0.002849002849002849,-1.8393867385111076,-2.1547004965472736
001,1,action,0,left,2800,432,action-external,NA,6,79,79,different,right,2800,3.4471580313422194,3.44715803134222,2.635483746814912,0.0023148148148148147,-0.9314984479834424,-0.9421508938076837
001,1,action,0,right,2800,428,action-external,NA,275,80,80,different,left,2800,3.4471580313422194,3.44715803134222,2.6314437690131722,0.002336448598130841,-0.9763324376391296,-0.9964739868264925
001,1,action,1,right,1000,633,action-external,NA,2375,81,1,same,right,1000,3,3,2.801403710017355,0.001579778830963665,1.3214095322148376,1.2888726506391008
001,1,action,1,left,1000,486,action-external,NA,354,82,2,different,right,1000,3,3,2.6866362692622934,0.00205761316872428,-0.3262395876316657,-0.25433443257386085
001,1,action,1,right,1000,430,action-external,NA,324,83,3,different,left,1000,3,3,2.6334684555795866,0.002325581395348837,-0.953915442811286,-0.9692492737021036
001,1,action,1,right,1000,508,action-external,NA,735,84,4,same,right,1000,3,3,2.7058637122839193,0.001968503937007874,-0.07965264452538634,0.004205150323809417
001,1,action,1,left,1000,400,action-external,NA,521,85,5,different,right,1000,3,3,2.6020599913279625,0.0025,-1.2901703652289398,-1.3915795460080989
001,1,action,1,left,1000,557,action-external,NA,319,86,6,same,left,1000,3,3,2.745855195173729,0.0017953321364452424,0.46956372875678143,0.541945987426358
001,1,action,1,left,1000,418,action-external,NA,386,87,7,same,left,1000,3,3,2.621176281775035,0.0023923444976076554,-1.0884174117783474,-1.1345345633144557
001,1,action,1,left,1000,600,action-external,NA,202,88,8,same,left,1000,3,3,2.7781512503836434,0.0016666666666666668,0.9515291175554184,0.9762111486243416
001,1,action,1,left,1000,534,action-external,NA,257,89,9,same,left,1000,3,3,2.727541257028556,0.0018726591760299626,0.21176828823658023,0.2956897419161694
001,1,action,1,left,1000,517,action-external,NA,176,90,10,same,left,1000,3,3,2.7134905430939424,0.0019342359767891683,0.02122383219990978,0.10675844637241404
001,1,action,1,right,1000,748,action-external,NA,234,91,11,different,left,1000,3,3,2.8739015978644615,0.001336898395721925,2.6103867348158434,2.263707092424794
001,1,action,1,right,1000,452,action-external,NA,302,92,12,same,right,1000,3,3,2.655138434811382,0.0022123893805309734,-0.7073284997050066,-0.6778664109008395
001,1,action,1,right,1000,386,action-external,NA,318,93,13,same,right,1000,3,3,2.586587304671755,0.0025906735751295338,-1.4470893290238447,-1.599631232855013
001,1,action,1,left,1000,399,action-external,NA,2340,94,14,different,right,1000,3,3,2.6009728956867484,0.002506265664160401,-1.3013788626428615,-1.4061970514836453
001,1,action,1,right,1000,424,action-external,NA,72,95,15,different,left,1000,3,3,2.6273658565927325,0.0023584905660377358,-1.0211664272948167,-1.0513071632965985
001,1,action,1,right,1000,587,action-external,NA,352,96,16,same,right,1000,3,3,2.7686381012476144,0.0017035775127768314,0.8058186511744351,0.8482936919502573
001,1,action,1,left,1000,399,action-external,NA,1068,97,17,different,right,1000,3,3,2.6009728956867484,0.002506265664160401,-1.3013788626428615,-1.4061970514836453
001,1,action,1,left,1000,600,action-external,NA,357,98,18,same,left,1000,3,3,2.7781512503836434,0.0016666666666666668,0.9515291175554184,0.9762111486243416
001,1,action,1,left,1000,867,action-external,NA,709,99,19,same,left,1000,3,3,2.9380190974762104,0.0011534025374855825,3.9441979270725365,3.1258556156277137
001,1,action,1,right,1000,448,action-external,NA,287,100,20,different,left,1000,3,3,2.651278013998144,0.002232142857142857,-0.7521624893606937,-0.72977511169592
001,1,action,1,left,1000,354,action-external,NA,601,101,21,different,right,1000,3,3,2.5490032620257876,0.002824858757062147,-1.805761246269342,-2.105000703895317
001,1,action,1,left,1000,537,action-external,NA,368,102,22,same,left,1000,3,3,2.7299742856995555,0.00186219739292365,0.2453937804783456,0.32840517979684447
001,1,action,1,right,1000,404,action-external,NA,234,103,23,different,left,1000,3,3,2.606381365110605,0.0024752475247524753,-1.2453363755732525,-1.3334726945639033
001,1,action,1,right,1000,502,action-external,NA,269,104,24,same,right,1000,3,3,2.7007037171450192,0.00199203187250996,-0.14690362900891707,-0.06517812593735314
001,1,action,1,left,1000,400,action-external,NA,54,105,25,different,right,1000,3,3,2.6020599913279625,0.0025,-1.2901703652289398,-1.3915795460080989
001,1,action,1,left,1000,504,action-external,NA,670,106,26,same,left,1000,3,3,2.7024305364455254,0.001984126984126984,-0.1244866341810735,-0.04195865046209716
001,1,action,1,right,1000,461,action-external,NA,1159,107,27,different,left,1000,3,3,2.663700925389648,0.0021691973969631237,-0.6064520229797105,-0.5627318742814761
001,1,action,1,right,1000,452,action-external,NA,436,108,28,same,right,1000,3,3,2.655138434811382,0.0022123893805309734,-0.7073284997050066,-0.6778664109008395
001,1,action,1,right,1000,635,action-external,NA,68,109,29,same,right,1000,3,3,2.8027737252919755,0.0015748031496062992,1.343826527042681,1.3072944021567305
001,1,action,1,left,1000,566,action-external,NA,385,110,30,different,right,1000,3,3,2.7528164311882715,0.0017667844522968198,0.5704402054820775,0.6355494402426173
001,1,action,1,right,1000,528,action-external,NA,336,111,31,different,left,1000,3,3,2.722633922533812,0.001893939393939394,0.14451730375304947,0.2297038377070925
001,1,action,1,left,1000,478,action-external,NA,55,112,32,different,right,1000,3,3,2.6794278966121188,0.0020920502092050207,-0.41590756694304004,-0.3512609795021751
001,1,action,1,right,1000,482,action-external,NA,67,113,33,different,left,1000,3,3,2.6830470382388496,0.002074688796680498,-0.3710735772873529,-0.302596611308746
001,1,action,1,left,1000,316,action-external,NA,147,114,34,different,right,1000,3,3,2.499687082618404,0.0031645569620253164,-2.23168414799837,-2.7681249913916313
001,1,action,1,left,1000,718,action-external,NA,300,115,35,same,left,1000,3,3,2.8561244442423,0.001392757660167131,2.2741318123981897,2.0246686577555573
001,1,action,1,right,1000,545,action-external,NA,434,116,36,different,left,1000,3,3,2.7363965022766426,0.001834862385321101,0.3350617597897199,0.41476077025424835
001,1,action,1,left,1000,416,action-external,NA,187,117,37,different,right,1000,3,3,2.6190933306267428,0.002403846153846154,-1.110834406606191,-1.1625427243824669
001,1,action,1,right,1000,351,action-external,NA,1776,118,38,different,left,1000,3,3,2.545307116465824,0.002849002849002849,-1.8393867385111076,-2.1547004965472736
001,1,action,1,left,1000,371,action-external,NA,553,119,39,different,right,1000,3,3,2.569373909615046,0.0026954177897574125,-1.6152167902326717,-1.8310891533496354
001,1,action,1,right,1000,468,action-external,NA,453,120,40,different,left,1000,3,3,2.670245853074124,0.002136752136752137,-0.5279925410822579,-0.4747262631486439
001,1,action,1,left,1000,350,action-external,NA,1672,121,41,different,right,1000,3,3,2.5440680443502757,0.002857142857142857,-1.8505952359250293,-2.171361536061142
001,1,action,1,right,1000,495,action-external,NA,2300,122,42,different,left,1000,3,3,2.694605198933569,0.00202020202020202,-0.22536311090636962,-0.14718114385860398
001,1,action,1,left,1000,403,action-external,NA,67,123,43,different,right,1000,3,3,2.6053050461411096,0.0024813895781637717,-1.2565448729871744,-1.3479452927728928
001,1,action,1,right,1000,479,action-external,NA,132,124,44,different,left,1000,3,3,2.680335513414563,0.0020876826722338203,-0.40469906952911827,-0.3390568154190478
001,1,action,1,left,1000,502,action-external,NA,371,125,45,different,right,1000,3,3,2.7007037171450192,0.00199203187250996,-0.14690362900891707,-0.06517812593735314
001,1,action,1,right,1000,448,action-external,NA,173,126,46,different,left,1000,3,3,2.651278013998144,0.002232142857142857,-0.7521624893606937,-0.72977511169592
001,1,action,1,left,1000,320,action-external,NA,149,127,47,different,right,1000,3,3,2.505149978319906,0.003125,-2.186850158342683,-2.694668797841026
001,1,action,1,left,1000,334,action-external,NA,522,129,49,same,left,1000,3,3,2.5237464668115646,0.0029940119760479044,-2.029931194547778,-2.4446132718625018
001,1,action,1,right,1000,461,action-external,NA,805,130,50,different,left,1000,3,3,2.663700925389648,0.0021691973969631237,-0.6064520229797105,-0.5627318742814761
001,1,action,1,left,1000,516,action-external,NA,1769,131,51,different,right,1000,3,3,2.7126497016272113,0.001937984496124031,0.01001533478598799,0.09545216909741579
001,1,action,1,right,1000,618,action-external,NA,787,132,52,different,left,1000,3,3,2.790988475088816,0.0016181229773462784,1.1532820710060105,1.148825401965569
001,1,action,1,left,1000,534,action-external,NA,504,133,53,different,right,1000,3,3,2.727541257028556,0.0018726591760299626,0.21176828823658023,0.2956897419161694
001,1,action,1,right,1000,443,action-external,NA,306,134,54,different,left,1000,3,3,2.6464037262230695,0.002257336343115124,-0.8082049764303028,-0.7953166570211915
001,1,action,1,right,1000,487,action-external,NA,1118,135,55,same,right,1000,3,3,2.6875289612146345,0.002053388090349076,-0.31503109021774395,-0.24233095375690178
001,1,action,1,right,1000,421,action-external,NA,184,136,56,same,right,1000,3,3,2.6242820958356683,0.0023752969121140144,-1.054791919536582,-1.0927725947110016
001,1,action,1,left,1000,617,action-external,NA,434,138,58,different,right,1000,3,3,2.7902851640332416,0.0016207455429497568,1.1420735735920888,1.1393684114156042
001,1,action,1,left,1000,634,action-external,NA,2330,139,59,same,left,1000,3,3,2.802089257881733,0.0015772870662460567,1.3326180296287593,1.2980907904985322
001,1,action,1,left,1000,879,action-external,NA,304,140,60,same,left,1000,3,3,2.9439888750737717,0.0011376564277588168,4.078699896039598,3.206127537813592
001,1,action,1,left,1000,650,action-external,NA,633,141,61,same,left,1000,3,3,2.8129133566428557,0.0015384615384615385,1.5119539882515078,1.4436357792833814
001,1,action,1,left,1000,604,action-external,NA,650,142,62,same,left,1000,3,3,2.7810369386211318,0.0016556291390728477,0.9963631072111055,1.015013220873565
001,1,action,1,right,1000,472,action-external,NA,456,143,63,different,left,1000,3,3,2.673941998634088,0.00211864406779661,-0.48315855142657077,-0.4250264704966877
001,1,action,1,left,1000,518,action-external,NA,638,144,64,different,right,1000,3,3,2.714329759745233,0.0019305019305019305,0.03243232961383157,0.11804287575501295
001,1,action,1,right,1000,347,action-external,NA,702,145,65,different,left,1000,3,3,2.5403294747908736,0.002881844380403458,-1.8842207281667946,-2.2216317781018855
001,1,action,1,right,1000,515,action-external,NA,854,147,67,different,left,1000,3,3,2.711807229041191,0.001941747572815534,-0.0011931626279337991,0.08412395916604966
001,1,action,1,right,1000,636,action-external,NA,968,148,68,same,right,1000,3,3,2.803457115648414,0.0015723270440251573,1.355035024456603,1.316483531335848
001,1,action,1,right,1000,534,action-external,NA,572,149,69,same,right,1000,3,3,2.727541257028556,0.0018726591760299626,0.21176828823658023,0.2956897419161694
001,1,action,1,left,1000,648,action-external,NA,516,150,70,different,right,1000,3,3,2.8115750058705933,0.0015432098765432098,1.4895369934236644,1.4256398008247626
001,1,action,1,right,1000,554,action-external,NA,534,151,71,different,left,1000,3,3,2.74350976472843,0.0018050541516245488,0.435938236515016,0.5104084289293144
001,1,action,1,right,1000,569,action-external,NA,535,152,72,same,right,1000,3,3,2.7551122663950713,0.0017574692442882249,0.6040656977238429,0.6664201221164483
001,1,action,1,left,1000,603,action-external,NA,637,153,73,different,right,1000,3,3,2.780317312140151,0.001658374792703151,0.9851546097971837,1.005336846847878
001,1,action,1,left,1000,540,action-external,NA,702,154,74,same,left,1000,3,3,2.7323937598229686,0.001851851851851852,0.27901927272011096,0.3609383580252433
001,1,action,1,right,1000,382,action-external,NA,536,155,75,different,left,1000,3,3,2.582063362911709,0.002617801047120419,-1.491923318679532,-1.6604618911167581
001,1,action,1,right,1000,522,action-external,NA,552,156,76,same,right,1000,3,3,2.717670503002262,0.0019157088122605363,0.07726631926951874,0.16296379255445467
001,1,action,1,left,1000,568,action-external,NA,838,157,77,different,right,1000,3,3,2.754348335711019,0.0017605633802816902,0.5928572003099211,0.6561480167618499
001,1,action,1,right,1000,376,action-external,NA,567,158,78,different,left,1000,3,3,2.575187844927661,0.0026595744680851063,-1.5591743031630627,-1.752912746376185
001,1,action,1,right,1000,516,action-external,NA,631,159,79,same,right,1000,3,3,2.7126497016272113,0.001937984496124031,0.01001533478598799,0.09545216909741579
001,1,action,1,right,1000,424,action-external,NA,573,160,80,same,right,1000,3,3,2.6273658565927325,0.0023584905660377358,-1.0211664272948167,-1.0513071632965985
001,1,external,2,right,1000,522,action-external,1304.030988,NA,161,1,same,right,1000,3,3,2.717670503002262,0.0019157088122605363,0.07726631926951874,0.16296379255445467
001,1,external,2,left,1000,523,action-external,1504.256302,NA,162,2,different,right,1000,3,3,2.718501688867274,0.0019120458891013384,0.08847481668344052,0.17414023690064048
001,1,external,2,left,1000,586,action-external,1668.732351,NA,163,3,same,left,1000,3,3,2.767897616018091,0.0017064846416382253,0.7946101537605134,0.8383368431811515
001,1,external,2,right,1000,498,action-external,1711.410002,NA,164,4,different,left,1000,3,3,2.6972293427597176,0.002008032128514056,-0.19173761866460423,-0.11189589820670359
001,1,external,2,left,1000,383,action-external,1353.208981,NA,165,5,different,right,1000,3,3,2.583198773968623,0.0026109660574412533,-1.48071482126561,-1.6451947180068565
001,1,external,2,right,1000,453,action-external,1499.8006779999998,NA,166,6,different,left,1000,3,3,2.656098202012832,0.002207505518763797,-0.6961200022910848,-0.6649610125250587
001,1,external,2,left,1000,540,action-external,1706.6700239999998,NA,167,7,different,right,1000,3,3,2.7323937598229686,0.001851851851851852,0.27901927272011096,0.3609383580252433
001,1,external,2,right,1000,462,action-external,1557.514675,NA,168,8,different,left,1000,3,3,2.6646419755561257,0.0021645021645021645,-0.5952435255657887,-0.5500781523459445
001,1,external,2,left,1000,384,action-external,1387.795313,NA,169,9,different,right,1000,3,3,2.584331224367531,0.0026041666666666665,-1.4695063238516883,-1.6299673550415006
001,1,external,2,right,1000,467,action-external,1513.946234,NA,170,10,different,left,1000,3,3,2.6693168805661123,0.0021413276231263384,-0.5392010384961797,-0.4872175842501899
001,1,external,2,right,1000,592,action-external,1486.503706,NA,171,11,same,right,1000,3,3,2.77232170672292,0.0016891891891891893,0.8618611382440441,0.8978248658080559
001,1,external,2,left,1000,498,action-external,1716.5766680000002,NA,172,12,different,right,1000,3,3,2.6972293427597176,0.002008032128514056,-0.19173761866460423,-0.11189589820670359
001,1,external,2,left,1000,567,action-external,1593.029863,NA,173,13,same,left,1000,3,3,2.7535830588929064,0.001763668430335097,0.5816487028959993,0.6458578107717198
001,1,external,2,left,1000,572,action-external,1359.51588,NA,174,14,same,left,1000,3,3,2.7573960287930244,0.0017482517482517483,0.6376911899656083,0.6971284683661323
001,1,external,2,left,1000,556,action-external,1490.307036,NA,175,15,same,left,1000,3,3,2.7450747915820575,0.0017985611510791368,0.4583552313428596,0.531452381029728
001,1,external,2,right,1000,451,action-external,1609.655874,NA,176,16,different,left,1000,3,3,2.6541765418779604,0.0022172949002217295,-0.7185369971189284,-0.6908003926850704
001,1,external,2,left,1000,636,action-external,1381.876106,NA,177,17,different,right,1000,3,3,2.803457115648414,0.0015723270440251573,1.355035024456603,1.316483531335848
001,1,external,2,left,1000,499,action-external,1617.4816460000002,NA,178,18,same,left,1000,3,3,2.6981005456233897,0.002004008016032064,-0.18052912125068246,-0.10018136992856928
001,1,external,2,right,1000,515,action-external,1290.750088,NA,179,19,different,left,1000,3,3,2.711807229041191,0.001941747572815534,-0.0011931626279337991,0.08412395916604966
001,1,external,2,right,1000,500,action-external,1388.538137,NA,180,20,same,right,1000,3,3,2.6989700043360187,0.002,-0.16932062383676066,-0.0884902941751778
001,1,external,2,right,1000,504,action-external,1334.824943,NA,181,21,same,right,1000,3,3,2.7024305364455254,0.001984126984126984,-0.1244866341810735,-0.04195865046209716
001,1,external,2,left,1000,552,action-external,1568.040117,NA,182,22,different,right,1000,3,3,2.741939077729199,0.0018115942028985507,0.41352124168717247,0.4892883683374192
001,1,external,2,right,1000,592,action-external,1477.7659489999999,NA,184,24,different,left,1000,3,3,2.77232170672292,0.0016891891891891893,0.8618611382440441,0.8978248658080559
001,1,external,2,right,1000,620,action-external,1442.832167,NA,185,25,same,right,1000,3,3,2.792391689498254,0.0016129032258064516,1.1756990658338542,1.167693561799618
001,1,external,2,right,1000,622,action-external,1479.5849190000001,NA,186,26,same,right,1000,3,3,2.7937903846908188,0.001607717041800643,1.1981160606616978,1.1865009545080487
001,1,external,2,left,1000,616,action-external,1738.82133,NA,187,27,different,right,1000,3,3,2.7895807121644256,0.0016233766233766235,1.1308650761781671,1.129896081052679
001,1,external,2,left,1000,786,action-external,1648.77477,NA,188,28,same,left,1000,3,3,2.895422546039408,0.001272264631043257,3.0363096365448716,2.553086026402386
001,1,external,2,left,1000,631,action-external,1623.331652,NA,189,29,same,left,1000,3,3,2.8000293592441343,0.001584786053882726,1.298992537386994,1.2703926023423004
001,1,external,2,right,1000,593,action-external,1490.9673070000001,NA,190,30,different,left,1000,3,3,2.7730546933642626,0.0016863406408094434,0.8730696356579659,0.9076808856807519
001,1,external,2,right,1000,592,action-external,1251.924582,NA,191,31,same,right,1000,3,3,2.77232170672292,0.0016891891891891893,0.8618611382440441,0.8978248658080559
001,1,external,2,left,1000,631,action-external,1729.947554,NA,192,32,different,right,1000,3,3,2.8000293592441343,0.001584786053882726,1.298992537386994,1.2703926023423004
001,1,external,2,left,1000,722,action-external,1582.015022,NA,193,33,same,left,1000,3,3,2.858537197569639,0.0013850415512465374,2.318965802053877,2.0571114655789136
001,1,external,2,right,1000,495,action-external,1553.899837,NA,194,34,different,left,1000,3,3,2.694605198933569,0.00202020202020202,-0.22536311090636962,-0.14718114385860398
001,1,external,2,left,1000,530,action-external,1622.799273,NA,195,35,different,right,1000,3,3,2.724275869600789,0.0018867924528301887,0.16693429858089306,0.25178208853632866
001,1,external,2,left,1000,605,action-external,1726.321681,NA,196,36,same,left,1000,3,3,2.781755374652469,0.001652892561983471,1.0075716046250274,1.0246735876561723
001,1,external,2,left,1000,602,action-external,1433.223359,NA,197,37,same,left,1000,3,3,2.7795964912578244,0.0016611295681063123,0.973946112383262,0.9956444124429964
001,1,external,2,left,1000,507,action-external,1592.431804,NA,198,38,same,left,1000,3,3,2.705007959333336,0.0019723865877712033,-0.09086114193930812,-0.007301632489610097
001,1,external,2,left,1000,504,action-external,1344.375922,NA,199,39,same,left,1000,3,3,2.7024305364455254,0.001984126984126984,-0.1244866341810735,-0.04195865046209716
001,1,external,2,right,1000,501,action-external,1701.151833,NA,200,40,different,left,1000,3,3,2.699837725867246,0.001996007984031936,-0.15811212642283887,-0.07682257723005552
001,1,external,2,left,1000,409,action-external,1491.154015,NA,201,41,different,right,1000,3,3,2.611723308007342,0.0024449877750611247,-1.1892938885036437,-1.2616428788763936
001,1,external,2,left,1000,532,action-external,1652.73903,NA,202,42,same,left,1000,3,3,2.7259116322950483,0.0018796992481203006,0.18935129340873663,0.2737771819149782
001,1,external,2,right,1000,503,action-external,1409.290159,NA,203,43,different,left,1000,3,3,2.7015679850559273,0.0019880715705765406,-0.1356951315949953,-0.05355684769735523
001,1,external,2,left,1000,558,action-external,1294.722419,NA,204,44,different,right,1000,3,3,2.7466341989375787,0.0017921146953405018,0.4807722261707032,0.5524207712005138
001,1,external,2,left,1000,433,action-external,1514.965079,NA,205,45,same,left,1000,3,3,2.6364878963533656,0.0023094688221709007,-0.9202899505695207,-0.9286487134841384
001,1,external,2,right,1000,509,action-external,1311.628448,NA,206,46,different,left,1000,3,3,2.7067177823367587,0.0019646365422396855,-0.06844414711146454,0.015689304247872245
001,1,external,2,left,1000,512,action-external,1489.7880930000001,NA,207,47,different,right,1000,3,3,2.709269960975831,0.001953125,-0.03481865486969917,0.050006878357122864
001,1,external,2,right,1000,392,action-external,1320.8877699999998,NA,208,48,different,left,1000,3,3,2.593286067020457,0.002551020408163265,-1.379838344540314,-1.509557101748963
001,1,external,2,left,1000,480,action-external,1390.0876879999998,NA,209,49,different,right,1000,3,3,2.681241237375587,0.0020833333333333333,-0.39349057211519645,-0.3268781032085796
001,1,external,2,right,1000,476,action-external,1543.693416,NA,210,50,different,left,1000,3,3,2.677606952720493,0.0021008403361344537,-0.43832456177088364,-0.37574609037684786
001,1,external,2,right,1000,426,action-external,1303.764502,NA,211,51,same,right,1000,3,3,2.629409599102719,0.002347417840375587,-0.9987494324669731,-1.0238262166367738
001,1,external,2,right,1000,392,action-external,1693.001918,NA,212,52,same,right,1000,3,3,2.593286067020457,0.002551020408163265,-1.379838344540314,-1.509557101748963
001,1,external,2,right,1000,401,action-external,1444.090882,NA,213,53,same,right,1000,3,3,2.603144372620182,0.0024937655860349127,-1.2789618678150179,-1.3769985387115395
001,1,external,2,right,1000,404,action-external,1339.636833,NA,214,54,same,right,1000,3,3,2.606381365110605,0.0024752475247524753,-1.2453363755732525,-1.3334726945639033
001,1,external,2,right,1000,386,action-external,1596.86292,NA,215,55,same,right,1000,3,3,2.586587304671755,0.0025906735751295338,-1.4470893290238447,-1.599631232855013
001,1,external,2,right,1000,603,action-external,1253.97779,NA,216,56,same,right,1000,3,3,2.780317312140151,0.001658374792703151,0.9851546097971837,1.005336846847878
001,1,external,2,left,1000,509,action-external,1338.711247,NA,217,57,different,right,1000,3,3,2.7067177823367587,0.0019646365422396855,-0.06844414711146454,0.015689304247872245
001,1,external,2,left,1000,671,action-external,1458.7543810000002,NA,218,58,same,left,1000,3,3,2.826722520168992,0.0014903129657228018,1.7473324339438656,1.6293190952707148
001,1,external,2,right,1000,491,action-external,1495.605102,NA,219,59,different,left,1000,3,3,2.6910814921229687,0.002036659877800407,-0.27019710056205676,-0.19456225886394288
001,1,external,2,left,1000,507,action-external,1621.8271129999998,NA,220,60,different,right,1000,3,3,2.705007959333336,0.0019723865877712033,-0.09086114193930812,-0.007301632489610097
001,1,external,2,right,1000,391,action-external,1705.17655,NA,221,61,different,left,1000,3,3,2.5921767573958667,0.0025575447570332483,-1.391046841954236,-1.5244733049759551
001,1,external,2,right,1000,571,action-external,1463.0015540000002,NA,222,62,same,right,1000,3,3,2.756636108245848,0.0017513134851138354,0.6264826925516864,0.6869102848520098
001,1,external,2,right,1000,520,action-external,1413.4220449999998,NA,223,63,same,right,1000,3,3,2.716003343634799,0.0019230769230769232,0.05484932444167515,0.1405465274504543
001,1,external,2,left,1000,472,action-external,1616.593618,NA,224,64,different,right,1000,3,3,2.673941998634088,0.00211864406779661,-0.48315855142657077,-0.4250264704966877
001,1,external,2,left,1000,571,action-external,1484.011939,NA,225,65,same,left,1000,3,3,2.756636108245848,0.0017513134851138354,0.6264826925516864,0.6869102848520098
001,1,external,2,right,1000,460,action-external,1449.693254,NA,226,66,different,left,1000,3,3,2.662757831681574,0.002173913043478261,-0.6176605203936323,-0.5754130744621061
001,1,external,2,right,1000,493,action-external,1630.728047,NA,227,67,same,right,1000,3,3,2.69284691927723,0.002028397565922921,-0.2477801057342132,-0.17082364736029007
001,1,external,2,right,1000,496,action-external,1485.091257,NA,228,68,same,right,1000,3,3,2.6954816764901977,0.0020161290322580645,-0.21415461349244783,-0.13539569003330312
001,1,external,2,left,1000,613,action-external,1258.116845,NA,229,69,different,right,1000,3,3,2.787460474518415,0.0016313213703099511,1.0972395839364018,1.1013865514169932
001,1,external,2,right,1000,582,action-external,1636.641053,NA,230,70,different,left,1000,3,3,2.7649229846498886,0.001718213058419244,0.7497761641048262,0.7983388074389924
001,1,external,2,left,1000,451,action-external,1622.4112449999998,NA,231,71,different,right,1000,3,3,2.6541765418779604,0.0022172949002217295,-0.7185369971189284,-0.6908003926850704
001,1,external,2,right,1000,521,action-external,1534.683847,NA,232,72,different,left,1000,3,3,2.7168377232995247,0.0019193857965451055,0.06605782185559694,0.15176591685412277
001,1,external,2,right,1000,503,action-external,1715.330115,NA,233,73,same,right,1000,3,3,2.7015679850559273,0.0019880715705765406,-0.1356951315949953,-0.05355684769735523
001,1,external,2,right,1000,462,action-external,1630.0287440000002,NA,234,74,same,right,1000,3,3,2.6646419755561257,0.0021645021645021645,-0.5952435255657887,-0.5500781523459445
001,1,external,2,left,1000,421,action-external,1744.128109,NA,235,75,different,right,1000,3,3,2.6242820958356683,0.0023752969121140144,-1.054791919536582,-1.0927725947110016
001,1,external,2,right,1000,479,action-external,1275.054841,NA,236,76,different,left,1000,3,3,2.680335513414563,0.0020876826722338203,-0.40469906952911827,-0.3390568154190478
001,1,external,2,left,1000,442,action-external,1289.671953,NA,237,77,different,right,1000,3,3,2.645422269349092,0.0022624434389140274,-0.8194134738442245,-0.8085137030633947
001,1,external,2,left,1000,482,action-external,1617.530332,NA,239,79,same,left,1000,3,3,2.6830470382388496,0.002074688796680498,-0.3710735772873529,-0.302596611308746
001,1,external,2,right,1000,478,action-external,1411.116503,NA,240,80,different,left,1000,3,3,2.6794278966121188,0.0020920502092050207,-0.41590756694304004,-0.3512609795021751
001,1,external,3,left,2800,479,action-external,1424.977837,NA,241,1,different,right,2800,3.4471580313422194,3.44715803134222,2.680335513414563,0.0020876826722338203,-0.40469906952911827,-0.3390568154190478
001,1,external,3,left,2800,522,action-external,1450.444845,NA,242,2,same,left,2800,3.4471580313422194,3.44715803134222,2.717670503002262,0.0019157088122605363,0.07726631926951874,0.16296379255445467
001,1,external,3,right,2800,579,action-external,1282.930314,NA,243,3,different,left,2800,3.4471580313422194,3.44715803134222,2.762678563727436,0.0017271157167530224,0.7161506718630608,0.7681594617774273
001,1,external,3,right,2800,487,action-external,1284.854652,NA,244,4,same,right,2800,3.4471580313422194,3.44715803134222,2.6875289612146345,0.002053388090349076,-0.31503109021774395,-0.24233095375690178
001,1,external,3,right,2800,473,action-external,1748.605018,NA,245,5,same,right,2800,3.4471580313422194,3.44715803134222,2.6748611407378116,0.0021141649048625794,-0.471950054012649,-0.41266733278643153
001,1,external,3,right,2800,472,action-external,1703.0232810000002,NA,246,6,same,right,2800,3.4471580313422194,3.44715803134222,2.673941998634088,0.00211864406779661,-0.48315855142657077,-0.4250264704966877
001,1,external,3,right,2800,422,action-external,1669.4640000000002,NA,247,7,same,right,2800,3.4471580313422194,3.44715803134222,2.625312450961674,0.002369668246445498,-1.0435834221226603,-1.0789180439933457
001,1,external,3,right,2800,505,action-external,1428.0524580000001,NA,248,8,same,right,2800,3.4471580313422194,3.44715803134222,2.7032913781186614,0.0019801980198019802,-0.1132781367671517,-0.030383442730982157
001,1,external,3,left,2800,419,action-external,1661.805951,NA,250,10,same,left,2800,3.4471580313422194,3.44715803134222,2.622214022966295,0.002386634844868735,-1.0772089143644257,-1.120580696726873
001,1,external,3,right,2800,391,action-external,1680.9145350000001,NA,251,11,different,left,2800,3.4471580313422194,3.44715803134222,2.5921767573958667,0.0025575447570332483,-1.391046841954236,-1.5244733049759551
001,1,external,3,right,2800,511,action-external,1711.188462,NA,252,12,same,right,2800,3.4471580313422194,3.44715803134222,2.708420900134713,0.0019569471624266144,-0.04602715228362096,0.03859008021758349
001,1,external,3,right,2800,461,action-external,1651.711774,NA,253,13,same,right,2800,3.4471580313422194,3.44715803134222,2.663700925389648,0.0021691973969631237,-0.6064520229797105,-0.5627318742814761
001,1,external,3,left,2800,563,action-external,1404.8679639999998,NA,254,14,different,right,2800,3.4471580313422194,3.44715803134222,2.7505083948513462,0.0017761989342806395,0.5368147132403122,0.6045146972874486
001,1,external,3,right,2800,500,action-external,1591.384605,NA,255,15,different,left,2800,3.4471580313422194,3.44715803134222,2.6989700043360187,0.002,-0.16932062383676066,-0.0884902941751778
001,1,external,3,right,2800,546,action-external,1548.945504,NA,256,16,same,right,2800,3.4471580313422194,3.44715803134222,2.7371926427047373,0.0018315018315018315,0.3462702572036417,0.42546598019693666
001,1,external,3,left,2800,549,action-external,1331.717644,NA,257,17,different,right,2800,3.4471580313422194,3.44715803134222,2.739572344450092,0.0018214936247723133,0.3798957494454071,0.45746436375593863
001,1,external,3,right,2800,584,action-external,1668.7351560000002,NA,258,18,different,left,2800,3.4471580313422194,3.44715803134222,2.7664128471123997,0.0017123287671232876,0.7721931589326697,0.8183720702706264
001,1,external,3,right,2800,502,action-external,1682.884609,NA,259,19,same,right,2800,3.4471580313422194,3.44715803134222,2.7007037171450192,0.00199203187250996,-0.14690362900891707,-0.06517812593735314
001,1,external,3,left,2800,572,action-external,1551.870328,NA,260,20,different,right,2800,3.4471580313422194,3.44715803134222,2.7573960287930244,0.0017482517482517483,0.6376911899656083,0.6971284683661323
001,1,external,3,left,2800,602,action-external,1318.0764949999998,NA,261,21,same,left,2800,3.4471580313422194,3.44715803134222,2.7795964912578244,0.0016611295681063123,0.973946112383262,0.9956444124429964
001,1,external,3,left,2800,555,action-external,1733.141232,NA,262,22,same,left,2800,3.4471580313422194,3.44715803134222,2.7442929831226763,0.0018018018018018018,0.44714673392893783,0.5209398842423535
001,1,external,3,left,2800,622,action-external,1625.8228550000001,NA,263,23,same,left,2800,3.4471580313422194,3.44715803134222,2.7937903846908188,0.001607717041800643,1.1981160606616978,1.1865009545080487
001,1,external,3,left,2800,636,action-external,1484.085882,NA,264,24,same,left,2800,3.4471580313422194,3.44715803134222,2.803457115648414,0.0015723270440251573,1.355035024456603,1.316483531335848
001,1,external,3,right,2800,582,action-external,1465.022429,NA,265,25,different,left,2800,3.4471580313422194,3.44715803134222,2.7649229846498886,0.001718213058419244,0.7497761641048262,0.7983388074389924
001,1,external,3,left,2800,556,action-external,1470.094773,NA,266,26,different,right,2800,3.4471580313422194,3.44715803134222,2.7450747915820575,0.0017985611510791368,0.4583552313428596,0.531452381029728
001,1,external,3,right,2800,530,action-external,1383.1433479999998,NA,267,27,different,left,2800,3.4471580313422194,3.44715803134222,2.724275869600789,0.0018867924528301887,0.16693429858089306,0.25178208853632866
001,1,external,3,right,2800,520,action-external,1372.769803,NA,268,28,same,right,2800,3.4471580313422194,3.44715803134222,2.716003343634799,0.0019230769230769232,0.05484932444167515,0.1405465274504543
001,1,external,3,left,2800,581,action-external,1635.459011,NA,269,29,different,right,2800,3.4471580313422194,3.44715803134222,2.7641761323903307,0.0017211703958691911,0.7385676666909043,0.788296345138877
001,1,external,3,left,2800,586,action-external,1263.8553889999998,NA,270,30,same,left,2800,3.4471580313422194,3.44715803134222,2.767897616018091,0.0017064846416382253,0.7946101537605134,0.8383368431811515
001,1,external,3,right,2800,413,action-external,1363.772795,NA,271,31,different,left,2800,3.4471580313422194,3.44715803134222,2.615950051656401,0.002421307506053269,-1.1444598988479564,-1.2048084605497307
001,1,external,3,right,2800,487,action-external,1413.900073,NA,272,32,same,right,2800,3.4471580313422194,3.44715803134222,2.6875289612146345,0.002053388090349076,-0.31503109021774395,-0.24233095375690178
001,1,external,3,right,2800,556,action-external,1679.3226260000001,NA,273,33,same,right,2800,3.4471580313422194,3.44715803134222,2.7450747915820575,0.0017985611510791368,0.4583552313428596,0.531452381029728
001,1,external,3,right,2800,471,action-external,1479.835824,NA,274,34,same,right,2800,3.4471580313422194,3.44715803134222,2.673020907128896,0.0021231422505307855,-0.4943670488404926,-0.4374118206077261
001,1,external,3,left,2800,564,action-external,1266.701323,NA,275,35,different,right,2800,3.4471580313422194,3.44715803134222,2.751279103983342,0.0017730496453900709,0.548023210654234,0.6148779482562614
001,1,external,3,right,2800,456,action-external,1371.9747499999999,NA,276,36,different,left,2800,3.4471580313422194,3.44715803134222,2.658964842664435,0.0021929824561403508,-0.6624945100493195,-0.6264150614306083
001,1,external,3,left,2800,583,action-external,1259.580905,NA,277,37,different,right,2800,3.4471580313422194,3.44715803134222,2.765668554759014,0.0017152658662092624,0.760984661518748,0.8083640294520007
001,1,external,3,right,2800,414,action-external,1744.594394,NA,278,38,different,left,2800,3.4471580313422194,3.44715803134222,2.617000341120899,0.0024154589371980675,-1.1332514014340347,-1.1906858650612044
001,1,external,3,right,2800,485,action-external,1275.947774,NA,279,39,same,right,2800,3.4471580313422194,3.44715803134222,2.6857417386022635,0.002061855670103093,-0.33744808504558754,-0.2663626353605329
001,1,external,3,left,2800,575,action-external,1723.119025,NA,280,40,different,right,2800,3.4471580313422194,3.44715803134222,2.7596678446896306,0.0017391304347826088,0.6713166822073736,0.7276761773708209
001,1,external,3,left,2800,634,action-external,1522.023224,NA,281,41,same,left,2800,3.4471580313422194,3.44715803134222,2.802089257881733,0.0015772870662460567,1.3326180296287593,1.2980907904985322
001,1,external,3,right,2800,564,action-external,1431.406053,NA,282,42,different,left,2800,3.4471580313422194,3.44715803134222,2.751279103983342,0.0017730496453900709,0.548023210654234,0.6148779482562614
001,1,external,3,right,2800,519,action-external,1322.185135,NA,283,43,same,right,2800,3.4471580313422194,3.44715803134222,2.7151673578484576,0.0019267822736030828,0.04364082702775336,0.1293055415187326
001,1,external,3,left,2800,701,action-external,1408.858168,NA,284,44,different,right,2800,3.4471580313422194,3.44715803134222,2.8457180179666586,0.0014265335235378032,2.083587356361519,1.884739853611728
001,1,external,3,left,2800,571,action-external,1600.674731,NA,285,45,same,left,2800,3.4471580313422194,3.44715803134222,2.756636108245848,0.0017513134851138354,0.6264826925516864,0.6869102848520098
001,1,external,3,left,2800,586,action-external,1290.120714,NA,286,46,same,left,2800,3.4471580313422194,3.44715803134222,2.767897616018091,0.0017064846416382253,0.7946101537605134,0.8383368431811515
001,1,external,3,left,2800,519,action-external,1479.719496,NA,287,47,same,left,2800,3.4471580313422194,3.44715803134222,2.7151673578484576,0.0019267822736030828,0.04364082702775336,0.1293055415187326
001,1,external,3,right,2800,529,action-external,1497.1566149999999,NA,288,48,different,left,2800,3.4471580313422194,3.44715803134222,2.7234556720351857,0.001890359168241966,0.15572580116697127,0.2407533970838926
001,1,external,3,left,2800,549,action-external,1457.8632890000001,NA,289,49,different,right,2800,3.4471580313422194,3.44715803134222,2.739572344450092,0.0018214936247723133,0.3798957494454071,0.45746436375593863
001,1,external,3,left,2800,635,action-external,1641.2099520000002,NA,290,50,same,left,2800,3.4471580313422194,3.44715803134222,2.8027737252919755,0.0015748031496062992,1.343826527042681,1.3072944021567305
001,1,external,3,left,2800,620,action-external,1561.690005,NA,291,51,same,left,2800,3.4471580313422194,3.44715803134222,2.792391689498254,0.0016129032258064516,1.1756990658338542,1.167693561799618
001,1,external,3,right,2800,499,action-external,1605.088337,NA,292,52,different,left,2800,3.4471580313422194,3.44715803134222,2.6981005456233897,0.002004008016032064,-0.18052912125068246,-0.10018136992856928
001,1,external,3,left,2800,521,action-external,1586.118469,NA,293,53,different,right,2800,3.4471580313422194,3.44715803134222,2.7168377232995247,0.0019193857965451055,0.06605782185559694,0.15176591685412277
001,1,external,3,right,2800,496,action-external,1270.761062,NA,294,54,different,left,2800,3.4471580313422194,3.44715803134222,2.6954816764901977,0.0020161290322580645,-0.21415461349244783,-0.13539569003330312
001,1,external,3,left,2800,572,action-external,1378.8709990000002,NA,295,55,different,right,2800,3.4471580313422194,3.44715803134222,2.7573960287930244,0.0017482517482517483,0.6376911899656083,0.6971284683661323
001,1,external,3,right,2800,511,action-external,1462.887882,NA,296,56,different,left,2800,3.4471580313422194,3.44715803134222,2.708420900134713,0.0019569471624266144,-0.04602715228362096,0.03859008021758349
001,1,external,3,left,2800,496,action-external,1628.06509,NA,297,57,different,right,2800,3.4471580313422194,3.44715803134222,2.6954816764901977,0.0020161290322580645,-0.21415461349244783,-0.13539569003330312
001,1,external,3,left,2800,447,action-external,1378.683466,NA,299,59,different,right,2800,3.4471580313422194,3.44715803134222,2.6503075231319366,0.0022371364653243847,-0.7633709867746156,-0.742824704586303
001,1,external,3,left,2800,539,action-external,1663.794031,NA,300,60,same,left,2800,3.4471580313422194,3.44715803134222,2.7315887651867388,0.0018552875695732839,0.2678107753061892,0.35011409099963614
001,1,external,3,right,2800,466,action-external,1566.896159,NA,301,61,different,left,2800,3.4471580313422194,3.44715803134222,2.66838591669,0.002145922746781116,-0.5504095359101016,-0.49973568205196806
001,1,external,3,left,2800,567,action-external,1605.572412,NA,302,62,different,right,2800,3.4471580313422194,3.44715803134222,2.7535830588929064,0.001763668430335097,0.5816487028959993,0.6458578107717198
001,1,external,3,left,2800,536,action-external,1441.945017,NA,303,63,same,left,2800,3.4471580313422194,3.44715803134222,2.72916478969277,0.0018656716417910447,0.2341852830644238,0.3175203856140612
001,1,external,3,left,2800,538,action-external,1634.567198,NA,304,64,same,left,2800,3.4471580313422194,3.44715803134222,2.7307822756663893,0.0018587360594795538,0.25660227789226736,0.33926972318806753
001,1,external,3,right,2800,500,action-external,1464.289902,NA,305,65,different,left,2800,3.4471580313422194,3.44715803134222,2.6989700043360187,0.002,-0.16932062383676066,-0.0884902941751778
001,1,external,3,left,2800,342,action-external,1289.971816,NA,306,66,different,right,2800,3.4471580313422194,3.44715803134222,2.534026106056135,0.0029239766081871343,-1.9402632152364037,-2.306389294829232
001,1,external,3,right,2800,532,action-external,1648.200493,NA,307,67,different,left,2800,3.4471580313422194,3.44715803134222,2.7259116322950483,0.0018796992481203006,0.18935129340873663,0.2737771819149782
001,1,external,3,left,2800,397,action-external,1493.099775,NA,308,68,different,right,2800,3.4471580313422194,3.44715803134222,2.598790506763115,0.0025188916876574307,-1.3237958574707052,-1.435542291066569
001,1,external,3,left,2800,606,action-external,1254.533098,NA,309,69,same,left,2800,3.4471580313422194,3.44715803134222,2.782472624166286,0.0016501650165016502,1.018780102038949,1.0343180000685372
001,1,external,3,right,2800,455,action-external,1291.491774,NA,310,70,different,left,2800,3.4471580313422194,3.44715803134222,2.6580113966571126,0.002197802197802198,-0.6737030074632412,-0.6392354626025827
001,1,external,3,right,2800,520,action-external,1407.5261240000002,NA,311,71,same,right,2800,3.4471580313422194,3.44715803134222,2.716003343634799,0.0019230769230769232,0.05484932444167515,0.1405465274504543
001,1,external,3,left,2800,522,action-external,1452.9646089999999,NA,312,72,different,right,2800,3.4471580313422194,3.44715803134222,2.717670503002262,0.0019157088122605363,0.07726631926951874,0.16296379255445467
001,1,external,3,right,2800,523,action-external,1456.471568,NA,313,73,different,left,2800,3.4471580313422194,3.44715803134222,2.718501688867274,0.0019120458891013384,0.08847481668344052,0.17414023690064048
001,1,external,3,right,2800,526,action-external,1548.3618640000002,NA,314,74,same,right,2800,3.4471580313422194,3.44715803134222,2.7209857441537393,0.0019011406844106464,0.1221003089252059,0.2075417982489229
001,1,external,3,left,2800,547,action-external,1387.1816560000002,NA,315,75,different,right,2800,3.4471580313422194,3.44715803134222,2.737987326333431,0.0018281535648994515,0.3574787546175635,0.4361516014554144
001,1,external,3,left,2800,607,action-external,1307.688242,NA,316,76,same,left,2800,3.4471580313422194,3.44715803134222,2.7831886910752575,0.0016474464579901153,1.029988599452871,1.0439465107219854
001,1,external,3,right,2800,496,action-external,1287.737202,NA,317,77,different,left,2800,3.4471580313422194,3.44715803134222,2.6954816764901977,0.0020161290322580645,-0.21415461349244783,-0.13539569003330312
001,1,external,3,left,2800,732,action-external,1651.538305,NA,318,78,different,right,2800,3.4471580313422194,3.44715803134222,2.864511081058392,0.001366120218579235,2.4310507761930946,2.137438597154562
001,1,external,3,right,2800,468,action-external,1581.2898010000001,NA,319,79,different,left,2800,3.4471580313422194,3.44715803134222,2.670245853074124,0.002136752136752137,-0.5279925410822579,-0.4747262631486439
001,1,external,3,right,2800,520,action-external,1618.2021,NA,320,80,same,right,2800,3.4471580313422194,3.44715803134222,2.716003343634799,0.0019230769230769232,0.05484932444167515,0.1405465274504543
002,1,external,0,left,2800,403.3,external-action,1293.602388,NA,1,1,different,right,2800,3.4471580313422194,3.44715803134222,2.605628222007619,0.002479543763947434,-0.4708247956712576,-0.45126319060628867
002,1,external,0,right,2800,451.1,external-action,1719.155285,NA,2,2,different,left,2800,3.4471580313422194,3.44715803134222,2.6542728270977105,0.0022168033695411215,0.25107032473705865,0.3384183007036903
002,1,external,0,left,2800,408.2,external-action,1439.8218709999999,NA,3,3,different,right,2800,3.4471580313422194,3.44715803134222,2.6108730003800518,0.002449779519843214,-0.3968229946252172,-0.366121078771634
002,1,external,0,right,2800,400,external-action,1295.118542,NA,4,4,different,left,2800,3.4471580313422194,3.44715803134222,2.6020599913279625,0.0025,-0.5206627433145097,-0.5091887451303798
002,1,external,0,right,2800,425.5,external-action,1308.739806,NA,5,5,same,right,2800,3.4471580313422194,3.44715803134222,2.628899564420607,0.0023501762632197414,-0.13555132970756287,-0.07348340706320712
002,1,external,0,right,2800,417.3,external-action,1311.415558,NA,6,6,same,right,2800,3.4471580313422194,3.44715803134222,2.620448384711709,0.0023963575365444525,-0.2593910783968554,-0.21067724764411336
002,1,external,0,right,2800,507.2,external-action,1738.3129589999999,NA,7,7,same,right,2800,3.4471580313422194,3.44715803134222,2.7051792448736762,0.001971608832807571,1.0983154346723412,1.164817360416925
002,1,external,0,left,2800,400.8,external-action,1558.061568,NA,8,8,different,right,2800,3.4471580313422194,3.44715803134222,2.6029277128591892,0.00249500998003992,-0.5085808166131152,-0.49510242185667186
002,1,external,0,right,2800,403.5,external-action,1303.83858,NA,9,9,different,left,2800,3.4471580313422194,3.44715803134222,2.6058435390580894,0.0024783147459727386,-0.46780431399590916,-0.44776780012660033
002,1,external,0,right,2800,516.7,external-action,1360.312983,NA,10,10,same,right,2800,3.4471580313422194,3.44715803134222,2.7132384615456617,0.0019353590090961871,1.2417883142514008,1.2956481941452898
002,1,external,0,left,2800,551.3000000000001,external-action,1630.5407810000002,NA,11,11,different,right,2800,3.4471580313422194,3.44715803134222,2.741387992479269,0.0018138944313440956,1.7643316440867094,1.7526189831188685
002,1,external,0,right,2800,388.1,external-action,1315.4302149999999,NA,12,12,different,left,2800,3.4471580313422194,3.44715803134222,2.588943642740015,0.0025766555011594947,-0.7003814029977512,-0.7221154960884563
002,1,external,0,left,2800,401.5,external-action,1295.9379529999999,NA,13,13,different,right,2800,3.4471580313422194,3.44715803134222,2.6036855496146996,0.0024906600249066002,-0.4980091307493952,-0.48279993408536476
002,1,external,0,right,2800,368.3,external-action,1494.411605,NA,14,14,different,left,2800,3.4471580313422194,3.44715803134222,2.566201718854913,0.0027151778441487917,-0.9994090888572631,-1.0913008628025023
002,1,external,0,left,2800,352.2,external-action,1624.236693,NA,15,15,different,right,2800,3.4471580313422194,3.44715803134222,2.5467893516312583,0.0028392958546280523,-1.242557863722826,-1.4064352352707647
002,1,external,0,right,2800,375.40000000000003,external-action,1279.4282320000002,NA,16,16,different,left,2800,3.4471580313422194,3.44715803134222,2.5744942682853273,0.0026638252530633987,-0.8921819893823874,-0.9566821771570255
002,1,external,0,left,2800,455.7,external-action,1312.960897,NA,17,17,different,right,2800,3.4471580313422194,3.44715803134222,2.6586790285824486,0.0021944261575597983,0.320541403270076,0.40994721440411175
002,1,external,0,left,2800,434.2,external-action,1743.820955,NA,18,18,same,left,2800,3.4471580313422194,3.44715803134222,2.637689819118401,0.002303086135421465,-0.004160376829898804,0.06921487213739054
002,1,external,0,right,2800,383.90000000000003,external-action,1433.883995,NA,19,19,different,left,2800,3.4471580313422194,3.44715803134222,2.584218112117405,0.0026048450117218025,-0.7638115181800718,-0.7988283003631009
002,1,external,0,left,2800,491.3,external-action,1706.5044819999998,NA,20,20,different,right,2800,3.4471580313422194,3.44715803134222,2.691346764134822,0.002035416242621616,0.8581871414821277,0.9402651413549188
002,1,external,0,left,2800,426.59999999999997,external-action,1442.148258,NA,21,21,same,left,2800,3.4471580313422194,3.44715803134222,2.63002085111341,0.0023441162681669013,-0.11893868049314606,-0.055280785290063694
002,1,external,0,left,2800,420.3,external-action,1624.007953,NA,22,22,same,left,2800,3.4471580313422194,3.44715803134222,2.623559390005437,0.0023792529145848203,-0.21408385326662635,-0.16017414878505962
002,1,external,0,left,2800,417.3,external-action,1368.5254380000001,NA,23,23,same,left,2800,3.4471580313422194,3.44715803134222,2.620448384711709,0.0023963575365444525,-0.2593910783968554,-0.21067724764411336
002,1,external,0,right,2800,443.09999999999997,external-action,1732.544867,NA,24,24,different,left,2800,3.4471580313422194,3.44715803134222,2.6465017500316117,0.0022568269013766647,0.13025105772311368,0.2122650363226491
002,1,external,0,left,2800,409.8,external-action,1416.049219,NA,25,25,different,right,2800,3.4471580313422194,3.44715803134222,2.612571954065176,0.002440214738897023,-0.372659141222428,-0.3385407895031557
002,1,external,0,right,2800,384.2,external-action,1454.6751259999999,NA,26,26,different,left,2800,3.4471580313422194,3.44715803134222,2.584557360525675,0.0026028110359187923,-0.7592807956670495,-0.793321046506874
002,1,external,0,right,2800,485.59999999999997,external-action,1347.3825479999998,NA,27,27,same,right,2800,3.4471580313422194,3.44715803134222,2.686278678067201,0.0020593080724876445,0.7721034137346918,0.8579913978112343
002,1,external,0,right,2800,453.1,external-action,1304.568008,NA,28,28,same,right,2800,3.4471580313422194,3.44715803134222,2.656194062179186,0.0022070183182520413,0.28127514149054467,0.36960703749139245
002,1,external,0,left,2800,468.2,external-action,1627.4054600000002,NA,29,29,different,right,2800,3.4471580313422194,3.44715803134222,2.6704314093606056,0.0021358393848782574,0.5093215079793637,0.6007317333070741
002,1,external,0,right,2800,409.8,external-action,1461.076958,NA,30,30,different,left,2800,3.4471580313422194,3.44715803134222,2.612571954065176,0.002440214738897023,-0.372659141222428,-0.3385407895031557
002,1,external,0,right,2800,467.5,external-action,1685.865488,NA,31,31,same,right,2800,3.4471580313422194,3.44715803134222,2.6697816152085365,0.0021390374331550803,0.4987498221156437,0.5901831757825531
002,1,external,0,right,2800,451.40000000000003,external-action,1319.578264,NA,32,32,same,right,2800,3.4471580313422194,3.44715803134222,2.6545615547417434,0.002215330084182543,0.2556010472500817,0.34310541608061695
002,1,external,0,right,2800,439.09999999999997,external-action,1372.506366,NA,33,33,same,right,2800,3.4471580313422194,3.44715803134222,2.642563437104388,0.002277385561375541,0.06984142421614162,0.1483316809206332
002,1,external,0,right,2800,407.6,external-action,1625.387422,NA,34,34,same,right,2800,3.4471580313422194,3.44715803134222,2.610234175334389,0.002453385672227674,-0.4058844396512625,-0.3764915672114288
002,1,external,0,left,2800,368.3,external-action,1544.869447,NA,35,35,different,right,2800,3.4471580313422194,3.44715803134222,2.566201718854913,0.0027151778441487917,-0.9994090888572631,-1.0913008628025023
002,1,external,0,right,2800,387.2,external-action,1282.186048,NA,36,36,different,left,2800,3.4471580313422194,3.44715803134222,2.587935348636356,0.0025826446280991736,-0.7139735705368205,-0.7384838310761029
002,1,external,0,right,2800,426.59999999999997,external-action,1535.2382710000002,NA,37,37,same,right,2800,3.4471580313422194,3.44715803134222,2.63002085111341,0.0023441162681669013,-0.11893868049314606,-0.055280785290063694
002,1,external,0,right,2800,469.5,external-action,1520.573857,NA,38,38,same,right,2800,3.4471580313422194,3.44715803134222,2.6716355966021297,0.002129925452609159,0.5289546388691297,0.6202801369777794
002,1,external,0,right,2800,390.1,external-action,1543.9008809999998,NA,39,39,same,right,2800,3.4471580313422194,3.44715803134222,2.5911759503117913,0.002563445270443476,-0.6701765862442652,-0.6858769045924814
002,1,external,0,left,2800,474.8,external-action,1269.2607090000001,NA,40,40,different,right,2800,3.4471580313422194,3.44715803134222,2.6765107102825536,0.0021061499578770007,0.6089974032658679,0.6994212264024523
002,1,external,0,left,2800,545.9000000000001,external-action,1291.555685,NA,41,41,same,left,2800,3.4471580313422194,3.44715803134222,2.737113094305961,0.001831837332844843,1.6827786388522974,1.6832216068128238
002,1,external,0,left,2800,461.8,external-action,1425.823882,NA,43,43,same,left,2800,3.4471580313422194,3.44715803134222,2.6644539285811577,0.0021654395842356,0.4126660943682087,0.5036951569498608
002,1,external,0,right,2800,417.3,external-action,1710.3309490000001,NA,44,44,different,left,2800,3.4471580313422194,3.44715803134222,2.620448384711709,0.0023963575365444525,-0.2593910783968554,-0.21067724764411336
002,1,external,0,right,2800,535.2,external-action,1674.392009,NA,45,45,same,right,2800,3.4471580313422194,3.44715803134222,2.7285161047597666,0.0018684603886397607,1.5211828692211464,1.5436607343781115
002,1,external,0,left,2800,392,external-action,1338.478155,NA,46,46,different,right,2800,3.4471580313422194,3.44715803134222,2.593286067020457,0.002551020408163265,-0.6414820103284539,-0.651621921819956
002,1,external,0,left,2800,466.9,external-action,1566.889664,NA,47,47,same,left,2800,3.4471580313422194,3.44715803134222,2.6692238739308056,0.0021417862497322766,0.4896883770895976,0.5811289761822488
002,1,external,0,left,2800,400.3,external-action,1570.2243549999998,NA,48,48,same,left,2800,3.4471580313422194,3.44715803134222,2.602385590105105,0.002498126405196103,-0.5161320208014867,-0.503903075169106
002,1,external,0,right,2800,484.20000000000005,external-action,1598.2401790000001,NA,49,49,different,left,2800,3.4471580313422194,3.44715803134222,2.685024785105714,0.0020652622883106154,0.7509600420072527,0.8376360868381797
002,1,external,0,left,2800,374.90000000000003,external-action,1624.638479,NA,50,50,different,right,2800,3.4471580313422194,3.44715803134222,2.5739154404215507,0.0026673779674579886,-0.8997331935707589,-0.9660786898809408
002,1,external,0,left,2800,527.8000000000001,external-action,1295.965141,NA,51,51,same,left,2800,3.4471580313422194,3.44715803134222,2.7224693858840308,0.0018946570670708598,1.4094250472332486,1.445500168155407
002,1,external,0,left,2800,472.8,external-action,1721.8223420000002,NA,52,52,same,left,2800,3.4471580313422194,3.44715803134222,2.674677467873199,0.0021150592216582064,0.5787925865123819,0.6696609354704809
002,1,external,0,left,2800,434.40000000000003,external-action,1384.730735,NA,53,53,same,left,2800,3.4471580313422194,3.44715803134222,2.6378898165807905,0.002302025782688766,-0.0011398951545495142,0.07246156915683148
002,1,external,0,right,2800,384.6,external-action,1369.78087,NA,54,54,different,left,2800,3.4471580313422194,3.44715803134222,2.585009279902461,0.0026001040041601664,-0.7532398323163518,-0.7859847269550657
002,1,external,0,left,2800,417.1,external-action,1250.775127,NA,55,55,different,right,2800,3.4471580313422194,3.44715803134222,2.6202401898458314,0.002397506593143131,-0.26241156007220384,-0.2140570187793641
002,1,external,0,right,2800,351.3,external-action,1268.021,NA,56,56,different,left,2800,3.4471580313422194,3.44715803134222,2.5456781497920256,0.002846569883290635,-1.2561500312618943,-1.4244741426465477
002,1,external,0,right,2800,453.1,external-action,1567.639331,NA,57,57,same,right,2800,3.4471580313422194,3.44715803134222,2.656194062179186,0.0022070183182520413,0.28127514149054467,0.36960703749139245
002,1,external,0,right,2800,517.7,external-action,1435.2564189999998,NA,58,58,same,right,2800,3.4471580313422194,3.44715803134222,2.714078164981856,0.0019316206297083252,1.2568907226281438,1.3092796803198383
002,1,external,0,left,2800,379,external-action,1547.505879,NA,59,59,different,right,2800,3.4471580313422194,3.44715803134222,2.578639209968072,0.002638522427440633,-0.837813319226113,-0.8893944743714698
002,1,external,0,right,2800,467.4,external-action,1481.782418,NA,60,60,different,left,2800,3.4471580313422194,3.44715803134222,2.669688708056208,0.002139495079161318,0.4972395812779691,0.5886749497733557
002,1,external,0,left,2800,384.2,external-action,1552.4478829999998,NA,61,61,different,right,2800,3.4471580313422194,3.44715803134222,2.584557360525675,0.0026028110359187923,-0.7592807956670495,-0.793321046506874
002,1,external,0,left,2800,434.2,external-action,1369.905819,NA,62,62,same,left,2800,3.4471580313422194,3.44715803134222,2.637689819118401,0.002303086135421465,-0.004160376829898804,0.06921487213739054
002,1,external,0,left,2800,458.8,external-action,1301.143631,NA,63,63,same,left,2800,3.4471580313422194,3.44715803134222,2.66162340922923,0.002179598953792502,0.36735886923797967,0.4577453802197952
002,1,external,0,right,2800,368.4,external-action,1635.6726820000001,NA,64,64,different,left,2800,3.4471580313422194,3.44715803134222,2.566319621524811,0.002714440825190011,-0.9978988480195893,-1.089386867282911
002,1,external,0,left,2800,451.40000000000003,external-action,1504.781447,NA,65,65,different,right,2800,3.4471580313422194,3.44715803134222,2.6545615547417434,0.002215330084182543,0.2556010472500817,0.34310541608061695
002,1,external,0,right,2800,461.6,external-action,1376.673402,NA,66,66,different,left,2800,3.4471580313422194,3.44715803134222,2.664265800147675,0.002166377816291161,0.4096456126928603,0.5006411380790075
002,1,external,0,left,2800,401.1,external-action,1681.260652,NA,67,67,different,right,2800,3.4471580313422194,3.44715803134222,2.6032526619816467,0.0024931438544003987,-0.504050094100092,-0.48982729818885984
002,1,external,0,left,2800,434.3,external-action,1713.296797,NA,68,68,same,left,2800,3.4471580313422194,3.44715803134222,2.6377898293622293,0.002302555836979047,-0.002650135992224159,0.07083840753964687
002,1,external,0,left,2800,509,external-action,1457.9587789999998,NA,69,69,same,left,2800,3.4471580313422194,3.44715803134222,2.7067177823367587,0.0019646365422396855,1.125499769750479,1.1897935022939765
002,1,external,0,right,2800,370.90000000000003,external-action,1399.7895600000002,NA,70,70,different,left,2800,3.4471580313422194,3.44715803134222,2.5692568333286103,0.002696144513345915,-0.9601428270777309,-1.0417050782495405
002,1,external,0,left,2800,422.4,external-action,1714.3982529999998,NA,71,71,different,right,2800,3.4471580313422194,3.44715803134222,2.625723909525756,0.0023674242424242425,-0.18236879567546654,-0.12503600757475952
002,1,external,0,right,2800,492.3,external-action,1551.466717,NA,72,72,different,left,2800,3.4471580313422194,3.44715803134222,2.6922298357727557,0.002031281738777168,0.8732895498588706,0.9546006535188181
002,1,external,0,left,2800,450.6,external-action,1473.291637,NA,73,73,different,right,2800,3.4471580313422194,3.44715803134222,2.653791187387812,0.0022192632046160675,0.24351912054868716,0.33059951044560526
002,1,external,0,left,2800,439.7,external-action,1570.518511,NA,74,74,same,left,2800,3.4471580313422194,3.44715803134222,2.643156465619706,0.0022742779167614284,0.07890286924218777,0.15795872263468672
002,1,external,0,right,2800,491.4,external-action,1614.144827,NA,75,75,different,left,2800,3.4471580313422194,3.44715803134222,2.691435152144062,0.0020350020350020353,0.8596973823198014,0.9417000049913162
002,1,external,0,left,2800,502.09999999999997,external-action,1299.142601,NA,76,76,different,right,2800,3.4471580313422194,3.44715803134222,2.700790221374347,0.0019916351324437364,1.0212931519509516,1.0935673088248543
002,1,external,0,right,2800,426.5,external-action,1262.483278,NA,77,77,different,left,2800,3.4471580313422194,3.44715803134222,2.629919035503542,0.0023446658851113715,-0.12044892133081984,-0.05693362844688007
002,1,external,0,right,2800,417.3,external-action,1732.571358,NA,78,78,same,right,2800,3.4471580313422194,3.44715803134222,2.620448384711709,0.0023963575365444525,-0.2593910783968554,-0.21067724764411336
002,1,external,0,left,2800,535.2,external-action,1557.265009,NA,79,79,different,right,2800,3.4471580313422194,3.44715803134222,2.7285161047597666,0.0018684603886397607,1.5211828692211464,1.5436607343781115
002,1,external,0,right,2800,467,external-action,1329.321519,NA,80,80,different,left,2800,3.4471580313422194,3.44715803134222,2.6693168805661123,0.0021413276231263384,0.49119861792727226,0.5826388171673827
002,1,external,1,left,1000,656.2,external-action,1589.2029459999999,NA,81,1,different,right,1000,3,3,2.817036226050029,0.0015239256324291372,3.3485742828070513,2.9806690369837536
002,1,external,1,right,1000,402.8,external-action,1459.964271,NA,82,2,different,left,1000,3,3,2.6050894618815805,0.0024826216484607746,-0.4783759998596291,-0.4600092560538403
002,1,external,1,left,1000,326.90000000000003,external-action,1653.555693,NA,83,3,different,right,1000,3,3,2.514414920580369,0.0030590394616090543,-1.6246487956544235,-1.9319917475547048
002,1,external,1,right,1000,304,external-action,1351.3626809999998,NA,84,4,different,left,1000,3,3,2.482873583608754,0.003289473684210526,-1.970493947481839,-2.444024067922521
002,1,external,1,left,1000,350,external-action,1320.5704,NA,85,5,different,right,1000,3,3,2.5440680443502757,0.002857142857142857,-1.2757831621516604,-1.450612096979871
002,1,external,1,left,1000,410.8,external-action,1652.497402,NA,86,6,same,left,1000,3,3,2.6136304349252404,0.00243427458617332,-0.357556732845685,-0.3213577382161624
002,1,external,1,left,1000,374.09999999999997,external-action,1349.266818,NA,87,7,same,left,1000,3,3,2.572987708198205,0.0026730820636193535,-0.9118151202721543,-0.981139208191476
002,1,external,1,right,1000,416.9,external-action,1658.5527769999999,NA,88,8,different,left,1000,3,3,2.6200318951262975,0.0023986567522187576,-0.26543204174755314,-0.21743841090802601
002,1,external,1,right,1000,430.09999999999997,external-action,1626.8490630000001,NA,89,9,same,right,1000,3,3,2.6335694425540916,0.0023250406882120438,-0.06608025117454551,0.0023259518956410753
002,1,external,1,left,1000,337.8,external-action,1676.710474,NA,90,10,different,right,1000,3,3,2.52865964523499,0.002960331557134399,-1.460032544347925,-1.7007472881181886
002,1,external,1,right,1000,412.9,external-action,1334.0368389999999,NA,91,11,different,left,1000,3,3,2.6158448828747023,0.0024218939210462584,-0.3258416752545252,-0.2854090743114863
002,1,external,1,right,1000,404.6,external-action,1613.637405,NA,92,12,same,right,1000,3,3,2.607025878434786,0.0024715768660405336,-0.45119166478149153,-0.4285740679440687
002,1,external,1,right,1000,417.3,external-action,1348.953464,NA,93,13,same,right,1000,3,3,2.620448384711709,0.0023963575365444525,-0.2593910783968554,-0.21067724764411336
002,1,external,1,left,1000,340.9,external-action,1601.407721,NA,94,14,different,right,1000,3,3,2.532627001228891,0.0029334115576415375,-1.4132150783800221,-1.6363424565439808
002,1,external,1,right,1000,434.2,external-action,1621.697187,NA,96,16,same,right,1000,3,3,2.637689819118401,0.002303086135421465,-0.004160376829898804,0.06921487213739054
002,1,external,1,right,1000,402.6,external-action,1474.153235,NA,97,17,same,right,1000,3,3,2.604873770552636,0.0024838549428713363,-0.48139648153497755,-0.46351072245465
002,1,external,1,left,1000,418.3,external-action,1396.712812,NA,98,18,different,right,1000,3,3,2.6214878645806303,0.0023906287353573988,-0.2442886700201124,-0.19380265257737636
002,1,external,1,left,1000,395.7,external-action,1596.216353,NA,99,19,same,left,1000,3,3,2.597366050266028,0.0025271670457417236,-0.5856030993345048,-0.5853887342359491
002,1,external,1,left,1000,450.5,external-action,1573.9788640000002,NA,100,20,same,left,1000,3,3,2.6536947953150816,0.0022197558268590455,0.2420088797110125,0.3290347113151938
002,1,external,1,left,1000,388.79999999999995,external-action,1407.6022070000001,NA,101,21,same,left,1000,3,3,2.589726256254237,0.0025720164609053502,-0.6898097171340322,-0.7094107900704775
002,1,external,1,left,1000,373.09999999999997,external-action,1477.34806,NA,102,22,same,left,1000,3,3,2.571825249040829,0.0026802465826856075,-0.9269175286488973,-1.0000102110351317
002,1,external,1,left,1000,392.7,external-action,1419.8263550000001,NA,103,23,same,left,1000,3,3,2.594060901270418,0.002546473134708429,-0.6309103244647339,-0.6390435019747545
002,1,external,1,right,1000,523.3,external-action,1598.211322,NA,104,24,different,left,1000,3,3,2.718750734739665,0.001910949742021785,1.3414642095379032,1.385132734276447
002,1,external,1,left,1000,367.5,external-action,1260.6979410000001,NA,105,25,different,right,1000,3,3,2.5652573434202135,0.0027210884353741495,-1.0114910155586576,-1.1066315618645821
002,1,external,1,right,1000,395.6,external-action,1718.148218,NA,106,26,different,left,1000,3,3,2.5972562829251418,0.0025278058645096056,-0.5871133401721786,-0.5871706633375938
002,1,external,1,left,1000,354.8,external-action,1668.939545,NA,107,27,different,right,1000,3,3,2.5499836111596887,0.002818489289740699,-1.2032916019432938,-1.354580612885191
002,1,external,1,left,1000,417.1,external-action,1456.007678,NA,108,28,same,left,1000,3,3,2.6202401898458314,0.002397506593143131,-0.26241156007220384,-0.2140570187793641
002,1,external,1,left,1000,434.5,external-action,1454.94323,NA,109,29,same,left,1000,3,3,2.6379897807846855,0.0023014959723820483,3.703456831242722e-4,0.07408435716103533
002,1,external,1,left,1000,417.3,external-action,1583.831529,NA,110,30,same,left,1000,3,3,2.620448384711709,0.0023963575365444525,-0.2593910783968554,-0.21067724764411336
002,1,external,1,left,1000,443.7,external-action,1379.6661800000002,NA,111,31,same,left,1000,3,3,2.647089428716555,0.00225377507324769,0.13931250274915982,0.2218052305431095
002,1,external,1,right,1000,442.2,external-action,1315.935361,NA,112,32,different,left,1000,3,3,2.6456187382426952,0.002261420171867933,0.11665889018404531,0.19793049572920748
002,1,external,1,left,1000,405.9,external-action,1384.565005,NA,113,33,different,right,1000,3,3,2.6084190513172856,0.002463661000246366,-0.43155853389172627,-0.4059577297608851
002,1,external,1,right,1000,362.5,external-action,1304.970948,NA,114,34,different,left,1000,3,3,2.5593080109070123,0.002758620689655172,-1.0870030574423728,-1.2032111879633576
002,1,external,1,right,1000,417.8,external-action,1478.859495,NA,115,35,same,right,1000,3,3,2.62096843564429,0.0023934897079942556,-0.2518398742084839,-0.20223490146333511
002,1,external,1,right,1000,395.4,external-action,1656.5410330000002,NA,116,36,same,right,1000,3,3,2.5970366649776535,0.0025290844714213456,-0.5901338218475279,-0.5907358732507954
002,1,external,1,left,1000,416.9,external-action,1673.572987,NA,117,37,different,right,1000,3,3,2.6200318951262975,0.0023986567522187576,-0.26543204174755314,-0.21743841090802601
002,1,external,1,right,1000,351,external-action,1446.9986210000002,NA,118,38,different,left,1000,3,3,2.545307116465824,0.002849002849002849,-1.2606807537749174,-1.4304973830412022
002,1,external,1,right,1000,400.7,external-action,1733.945685,NA,119,39,same,right,1000,3,3,2.6028193424326997,0.0024956326428749688,-0.5100910574507898,-0.4968616738815494
002,1,external,1,left,1000,376.7,external-action,1732.431375,NA,120,40,different,right,1000,3,3,2.5759956202032677,0.002654632333421821,-0.8725488584926221,-0.9323096939321243
002,1,external,1,left,1000,519.3,external-action,1262.930037,NA,121,41,same,left,1000,3,3,2.715418322595056,0.001925669170036588,1.2810545760309313,1.3310353849991614
002,1,external,1,left,1000,416.8,external-action,1479.319246,NA,122,42,same,left,1000,3,3,2.619927710291468,0.0023992322456813818,-0.2669422825852269,-0.21912971533094622
002,1,external,1,right,1000,339.5,external-action,1593.028477,NA,123,43,different,left,1000,3,3,2.5308397786165204,0.0029455081001472753,-1.434358450107462,-1.6653556763085533
002,1,external,1,left,1000,390,external-action,1254.719427,NA,124,44,different,right,1000,3,3,2.591064607026499,0.002564102564102564,-0.6716868270819398,-0.6876844170887598
002,1,external,1,right,1000,370.59999999999997,external-action,1559.408259,NA,125,45,different,left,1000,3,3,2.5689054149828787,0.0026983270372369136,-0.9646735495907549,-1.047409895110877
002,1,external,1,left,1000,467.6,external-action,1286.243949,NA,126,46,different,right,1000,3,3,2.6698745024898027,0.00213857998289136,0.5002600629533184,0.5916910792110666
002,1,external,1,right,1000,345.5,external-action,1605.761542,NA,127,47,different,left,1000,3,3,2.5384480517102173,0.002894356005788712,-1.343743999847004,-1.5418453213206396
002,1,external,1,right,1000,440.3,external-action,1643.6946050000001,NA,128,48,same,right,1000,3,3,2.6437486854595256,0.002271178741766977,0.08796431426823392,0.16757263656051252
002,1,external,1,right,1000,436.90000000000003,external-action,1302.475536,NA,129,49,same,right,1000,3,3,2.6403820447095687,0.002288853284504463,0.036616125787308024,0.11291963067821398
002,1,external,1,left,1000,353.5,external-action,1259.351184,NA,130,50,different,right,1000,3,3,2.5483894181329183,0.002828854314002829,-1.22292473283306,-1.3804602499895422
002,1,external,1,left,1000,422,external-action,1681.5759400000002,NA,131,51,same,left,1000,3,3,2.625312450961674,0.002369668246445498,-0.18840975902616341,-0.13171549879263977
002,1,external,1,left,1000,384.6,external-action,1403.557998,NA,133,53,different,right,1000,3,3,2.585009279902461,0.0026001040041601664,-0.7532398323163518,-0.7859847269550657
002,1,external,1,right,1000,337.8,external-action,1634.336094,NA,134,54,different,left,1000,3,3,2.52865964523499,0.002960331557134399,-1.460032544347925,-1.7007472881181886
002,1,external,1,right,1000,435.2,external-action,1469.788192,NA,135,55,same,right,1000,3,3,2.6386888866901237,0.002297794117647059,0.01094203154684421,0.0854334264559262
002,1,external,1,right,1000,410,external-action,1620.77898,NA,136,56,same,right,1000,3,3,2.6127838567197355,0.0024390243902439024,-0.3696386595470796,-0.33510082727188656
002,1,external,1,right,1000,404,external-action,1450.399498,NA,137,57,same,right,1000,3,3,2.606381365110605,0.0024752475247524753,-0.46025310980753764,-0.4390368981400511
002,1,external,1,right,1000,421.70000000000005,external-action,1586.252062,NA,138,58,same,right,1000,3,3,2.6250036010148636,0.0023713540431586433,-0.19294048153918564,-0.13672927341649413
002,1,external,1,left,1000,353.1,external-action,1443.8127080000002,NA,139,59,different,right,1000,3,3,2.5478977175630972,0.0028320589068252617,-1.2289656961837567,-1.3884423651395192
002,1,external,1,left,1000,453.2,external-action,1334.5798790000001,NA,140,60,same,left,1000,3,3,2.6562899011913594,0.0022065313327449252,0.2827853823282185,0.37116285840757945
002,1,external,1,left,1000,488.70000000000005,external-action,1508.6242439999999,NA,141,61,same,left,1000,3,3,2.689042339028172,0.002046245140167792,0.8189208797025963,0.9028558160769926
002,1,external,1,right,1000,378.40000000000003,external-action,1305.9527699999999,NA,142,62,different,left,1000,3,3,2.5779511277297553,0.0026427061310782237,-0.8468747642521584,-0.9005645888598416
002,1,external,1,right,1000,384.2,external-action,1514.743216,NA,143,63,same,right,1000,3,3,2.584557360525675,0.0026028110359187923,-0.7592807956670495,-0.793321046506874
002,1,external,1,left,1000,551.8,external-action,1593.589616,NA,144,64,different,right,1000,3,3,2.7417816961431667,0.0018122508155128671,1.7718828482750792,1.759010246772158
002,1,external,1,left,1000,417.6,external-action,1399.017834,NA,145,65,same,left,1000,3,3,2.620760489994206,0.0023946360153256703,-0.2548603558838323,-0.20561062690638676
002,1,external,1,right,1000,352.7,external-action,1467.152569,NA,146,66,different,left,1000,3,3,2.5474054596674898,0.002835270768358378,-1.2350066595344544,-1.3964335277441386
002,1,external,1,right,1000,411.6,external-action,1704.3191669999999,NA,147,67,same,right,1000,3,3,2.6144753660903954,0.0024295432458697765,-0.34547480614429044,-0.30764138670466
002,1,external,1,right,1000,409.5,external-action,1309.778607,NA,148,68,same,right,1000,3,3,2.6122539060964374,0.002442002442002442,-0.3771898637354511,-0.3437038819734638
002,1,external,1,right,1000,417.3,external-action,1293.3177280000002,NA,149,69,same,right,1000,3,3,2.620448384711709,0.0023963575365444525,-0.2593910783968554,-0.21067724764411336
002,1,external,1,left,1000,407.9,external-action,1256.24043,NA,150,70,different,right,1000,3,3,2.6105537053170944,0.002451581269919098,-0.40135371713824025,-0.37130441618422283
002,1,external,1,right,1000,384.1,external-action,1630.98829,NA,151,71,different,left,1000,3,3,2.5844443071651764,0.0026034886748242643,-0.7607910365047234,-0.7951563198357603
002,1,external,1,right,1000,501,external-action,1307.4487370000002,NA,152,72,same,right,1000,3,3,2.699837725867246,0.001996007984031936,1.0046805027365346,1.0781047910159316
002,1,external,1,left,1000,404.4,external-action,1353.711481,NA,153,73,different,right,1000,3,3,2.6068111469189637,0.0024727992087042534,-0.4542121464568408,-0.4320599530351647
002,1,external,1,left,1000,406.8,external-action,1724.991849,NA,154,74,same,left,1000,3,3,2.609380944250707,0.0024582104228121925,-0.41796636635265705,-0.3903426570362091
002,1,external,1,left,1000,427.20000000000005,external-action,1680.379874,NA,155,75,same,left,1000,3,3,2.6306312440205,0.002340823970037453,-0.10987723546709904,-0.045371855404352186
002,1,external,1,right,1000,417.5,external-action,1384.414281,NA,156,76,different,left,1000,3,3,2.620656479819621,0.0023952095808383233,-0.25637059672150697,-0.20729909594885554
002,1,external,1,left,1000,477.4,external-action,1673.6850889999998,NA,157,77,different,right,1000,3,3,2.6788824146707357,0.0020946795140343527,0.6482636650453992,0.7379227427522596
002,1,external,1,right,1000,372,external-action,1321.2428519999999,NA,158,78,different,left,1000,3,3,2.5705429398818973,0.002688172043010753,-0.9435301778633142,-1.0208268217789156
002,1,external,1,right,1000,556.6,external-action,1643.8669690000002,NA,159,79,same,right,1000,3,3,2.745543201998024,0.0017966223499820337,1.8443744084834466,1.820073370782185
002,1,external,1,left,1000,443.40000000000003,external-action,1511.563564,NA,160,80,different,right,1000,3,3,2.6467956887784694,0.0022552999548940008,0.13478178023613763,0.21703674713297363
002,1,action,2,right,2800,474.2,external-action,NA,288,161,1,different,left,2800,3.4471580313422194,3.44715803134222,2.675961549642169,0.002108814846056516,0.5999359582398218,0.6905063222180235
002,1,action,2,right,2800,484,external-action,NA,408.6,162,2,same,right,2800,3.4471580313422194,3.44715803134222,2.6848453616444123,0.002066115702479339,0.7479395603319035,0.8347233817964934
002,1,action,2,right,2800,492.20000000000005,external-action,NA,462.4,163,3,same,right,2800,3.4471580313422194,3.44715803134222,2.6921416093667836,0.002031694433157253,0.8717793090211969,0.9531684132999511
002,1,action,2,left,2800,417.5,external-action,NA,286.9,164,4,different,right,2800,3.4471580313422194,3.44715803134222,2.620656479819621,0.0023952095808383233,-0.25637059672150697,-0.20729909594885554
002,1,action,2,left,2800,492.8,external-action,NA,285.3,165,5,same,left,2800,3.4471580313422194,3.44715803134222,2.692670699156369,0.002029220779220779,0.8808407540472422,0.9617574934929717
002,1,action,2,left,2800,467.8,external-action,NA,304.5,166,6,same,left,2800,3.4471580313422194,3.44715803134222,2.670060217473134,0.002137665669089354,0.5032805446286668,0.5947059188777483
002,1,action,2,right,2800,409.7,external-action,NA,301.70000000000005,167,7,different,left,2800,3.4471580313422194,3.44715803134222,2.6124659639531425,0.00244081034903588,-0.37416938206010264,-0.34026140023850615
002,1,action,2,left,2800,459.4,external-action,NA,495.2,168,8,different,right,2800,3.4471580313422194,3.44715803134222,2.662190990859007,0.0021767522855899,0.376420314264025,0.46695932505524707
002,1,action,2,right,2800,500.8,external-action,NA,301,169,9,different,left,2800,3.4471580313422194,3.44715803134222,2.6996643202023733,0.001996805111821086,1.0016600210611863,1.0752897770224055
002,1,action,2,left,2800,435.90000000000003,external-action,NA,351.4,170,10,different,right,2800,3.4471580313422194,3.44715803134222,2.639386869017684,0.0022941041523285156,0.021513717410565007,0.09676425593465372
002,1,action,2,right,2800,504.4,external-action,NA,299.09999999999997,171,11,different,left,2800,3.4471580313422194,3.44715803134222,2.702775077901044,0.0019825535289452814,1.0560286912174606,1.1257888564997875
002,1,action,2,left,2800,434.5,external-action,NA,263.90000000000003,172,12,different,right,2800,3.4471580313422194,3.44715803134222,2.6379897807846855,0.0023014959723820483,3.703456831242722e-4,0.07408435716103533
002,1,action,2,right,2800,423.9,external-action,NA,502.6,173,13,different,left,2800,3.4471580313422194,3.44715803134222,2.627263416568221,0.0023590469450342063,-0.15971518311035202,-0.1000441258455425
002,1,action,2,left,2800,418.1,external-action,NA,293.9,174,14,different,right,2800,3.4471580313422194,3.44715803134222,2.621280167550415,0.002391772303276728,-0.24730915169546083,-0.19717434200228554
002,1,action,2,left,2800,517.4,external-action,NA,324.29999999999995,175,15,same,left,2800,3.4471580313422194,3.44715803134222,2.7138264243805246,0.001932740626207963,1.2523600001151198,1.3051930011677628
002,1,action,2,left,2800,487,external-action,NA,324,176,16,same,left,2800,3.4471580313422194,3.44715803134222,2.6875289612146345,0.002053388090349076,0.7932467854621326,0.8782881081781139
002,1,action,2,right,2800,424.70000000000005,external-action,NA,0.9,177,17,different,left,2800,3.4471580313422194,3.44715803134222,2.6280822609906793,0.002354603249352484,-0.14763325640895658,-0.08675125845602992
002,1,action,2,right,2800,500.6,external-action,NA,278.5,178,18,same,right,2800,3.4471580313422194,3.44715803134222,2.6994908452722046,0.001997602876548142,0.9986395393858378,1.0724736385974594
002,1,action,2,right,2800,409.8,external-action,NA,460.1,179,19,same,right,2800,3.4471580313422194,3.44715803134222,2.612571954065176,0.002440214738897023,-0.372659141222428,-0.3385407895031557
002,1,action,2,left,2800,434.09999999999997,external-action,NA,335.9,180,20,different,right,2800,3.4471580313422194,3.44715803134222,2.6375897858387,0.00230361667818475,-0.005670617667573449,0.06759096277789219
002,1,action,2,left,2800,506.1,external-action,NA,368.4,181,21,same,left,2800,3.4471580313422194,3.44715803134222,2.704236337308788,0.0019758940920766646,1.0817027854579244,1.14951049029989
002,1,action,2,right,2800,472.4,external-action,NA,268.29999999999995,182,22,different,left,2800,3.4471580313422194,3.44715803134222,2.6743098889414774,0.0021168501270110076,0.5727516231616842,0.6636937726486565
002,1,action,2,left,2800,442.5,external-action,NA,244.10000000000002,183,23,different,right,2800,3.4471580313422194,3.44715803134222,2.6459132750338443,0.0022598870056497176,0.12118961269706839,0.20271191500580585
002,1,action,2,left,2800,544.3,external-action,NA,685.5,184,24,same,left,2800,3.4471580313422194,3.44715803134222,2.735838334317074,0.0018372221201543267,1.6586147854495066,1.662527546963381
002,1,action,2,right,2800,467.3,external-action,NA,319.5,185,25,different,left,2800,3.4471580313422194,3.44715803134222,2.6695957810243134,0.0021399529210357373,0.4957293404402953,0.5871664010454181
002,1,action,2,right,2800,501.4,external-action,NA,276,186,26,same,right,2800,3.4471580313422194,3.44715803134222,2.7001843296221977,0.001994415636218588,1.0107214660872317,1.0837314492979147
002,1,action,2,left,2800,411.3,external-action,NA,227.89999999999998,187,27,different,right,2800,3.4471580313422194,3.44715803134222,2.614158709509175,0.0024313153415998056,-0.3500055286573135,-0.312781891819832
002,1,action,2,left,2800,417.8,external-action,NA,386,188,28,same,left,2800,3.4471580313422194,3.44715803134222,2.62096843564429,0.0023934897079942556,-0.2518398742084839,-0.20223490146333511
002,1,action,2,left,2800,469.5,external-action,NA,504.4,189,29,same,left,2800,3.4471580313422194,3.44715803134222,2.6716355966021297,0.002129925452609159,0.5289546388691297,0.6202801369777794
002,1,action,2,right,2800,450.6,external-action,NA,452.29999999999995,190,30,different,left,2800,3.4471580313422194,3.44715803134222,2.653791187387812,0.0022192632046160675,0.24351912054868716,0.33059951044560526
002,1,action,2,right,2800,422.70000000000005,external-action,NA,487.3,191,31,same,right,2800,3.4471580313422194,3.44715803134222,2.626032247829019,0.002365744026496333,-0.1778380731624426,-0.12003053881418708
002,1,action,2,right,2800,422.3,external-action,NA,368.59999999999997,192,32,same,right,2800,3.4471580313422194,3.44715803134222,2.625621081424908,0.0023679848448969927,-0.18387903651314033,-0.12670528719735666
002,1,action,2,left,2800,802.4,external-action,NA,318.6,193,33,different,right,2800,3.4471580313422194,3.44715803134222,2.9043909200123617,0.0012462612163509472,5.556546387486879,4.398758152381931
002,1,action,2,left,2800,550.9,external-action,NA,363.8,194,34,same,left,2800,3.4471580313422194,3.44715803134222,2.7410727723733213,0.0018152114721365039,1.7582906807360108,1.7475017972995017
002,1,action,2,right,2800,384.40000000000003,external-action,NA,322.2,195,35,different,left,2800,3.4471580313422194,3.44715803134222,2.584783378996508,0.002601456815816857,-0.7562603139917002,-0.78965193247500165
002,1,action,2,left,2800,436.7,external-action,NA,375.09999999999997,196,36,different,right,2800,3.4471580313422194,3.44715803134222,2.64018319192134,0.002289901534234028,0.033595644111958735,0.10969151594547645
002,1,action,2,right,2800,452.90000000000003,external-action,NA,459.2,197,37,different,left,2800,3.4471580313422194,3.44715803134222,2.656002320682957,0.00220799293442261,0.27825465981519626,0.3664943652760948
002,1,action,2,right,2800,433.90000000000003,external-action,NA,467,198,38,same,right,2800,3.4471580313422194,3.44715803134222,2.637389650129212,0.0023046784973496195,-0.008691099342921022,0.06434202149776015
002,1,action,2,right,2800,584.8,external-action,NA,468.3,199,39,same,right,2800,3.4471580313422194,3.44715803134222,2.767007363949804,0.0017099863201094393,2.270262324707599,2.1685159450082203
002,1,action,2,right,2800,573.2,external-action,NA,468.7,200,40,same,right,2800,3.4471580313422194,3.44715803134222,2.758306181725307,0.0017445917655268665,2.095074387537381,2.027263640822071
002,1,action,2,left,2800,562.2,external-action,NA,300.09999999999997,201,41,different,right,2800,3.4471580313422194,3.44715803134222,2.749890841271422,0.0017787264318747775,1.928947895393208,1.890651603635266
002,1,action,2,right,2800,393,external-action,NA,568,202,42,different,left,2800,3.4471580313422194,3.44715803134222,2.5943925503754266,0.002544529262086514,-0.6263796019517108,-0.6336596128600277
002,1,action,2,left,2800,372.40000000000003,external-action,NA,436.59999999999997,203,43,different,right,2800,3.4471580313422194,3.44715803134222,2.571009672309305,0.002685284640171858,-0.9374892145126164,-1.013250031739494
002,1,action,2,left,2800,408.5,external-action,NA,369.59999999999997,204,44,same,left,2800,3.4471580313422194,3.44715803134222,2.6111920608684343,0.0024479804161566705,-0.3922922721121941,-0.3609415493702269
002,1,action,2,right,2800,393.9,external-action,NA,346.9,205,45,different,left,2800,3.4471580313422194,3.44715803134222,2.5953859808091417,0.002538715410002539,-0.6127874344126425,-0.6175325700984311
002,1,action,2,right,2800,434.40000000000003,external-action,NA,310.40000000000003,206,46,same,right,2800,3.4471580313422194,3.44715803134222,2.6378898165807905,0.002302025782688766,-0.0011398951545495142,0.07246156915683148
002,1,action,2,right,2800,373.2,external-action,NA,312.09999999999997,207,47,same,right,2800,3.4471580313422194,3.44715803134222,2.571941635074462,0.0026795284030010718,-0.9254072878112227,-0.998120836120134
002,1,action,2,right,2800,402.3,external-action,NA,389.40000000000003,208,48,same,right,2800,3.4471580313422194,3.44715803134222,2.6045500325712614,0.002485707183693761,-0.4859272040480006,-0.4687661848322774
002,1,action,2,right,2800,417.7,external-action,NA,314.90000000000003,209,49,same,right,2800,3.4471580313422194,3.44715803134222,2.620864475265121,0.0023940627244433805,-0.25335011504615856,-0.20392256214239995
002,1,action,2,left,2800,454.79999999999995,external-action,NA,384.1,210,50,different,right,2800,3.4471580313422194,3.44715803134222,2.6578204560156973,0.0021987686895338612,0.3069492357310068,0.3960094125933174
002,1,action,2,left,2800,502.8,external-action,NA,392.79999999999995,211,51,same,left,2800,3.4471580313422194,3.44715803134222,2.7013952690139202,0.001988862370723946,1.0318648378146724,1.1033894652890086
002,1,action,2,left,2800,644.1,external-action,NA,594.4000000000001,212,52,same,left,2800,3.4471580313422194,3.44715803134222,2.808953299155911,0.0015525539512498058,3.1658351414484605,2.8494532988340646
002,1,action,2,right,2800,400.5,external-action,NA,349.9,213,53,different,left,2800,3.4471580313422194,3.44715803134222,2.6026025204202563,0.0024968789013732834,-0.5131115391261383,-0.5003814954489783
002,1,action,2,left,2800,411.7,external-action,NA,0.7,214,54,different,right,2800,3.4471580313422194,3.44715803134222,2.614580866997486,0.002428953121204761,-0.3439645653066166,-0.30592871757122825
002,1,action,2,right,2800,390.40000000000003,external-action,NA,522.7,215,55,different,left,2800,3.4471580313422194,3.44715803134222,2.591509808994654,0.0025614754098360654,-0.6656458637312421,-0.6804571458734677
002,1,action,2,right,2800,627.6,external-action,NA,350.3,216,56,same,right,2800,3.4471580313422194,3.44715803134222,2.7976829349148993,0.0015933715742511153,2.916645403232201,2.666493687486298
002,1,action,2,left,2800,605.7,external-action,NA,387.40000000000003,217,57,different,right,2800,3.4471580313422194,3.44715803134222,2.7822575736633017,0.0016509823344890207,2.585902659781529,2.4160831382671852
002,1,action,2,left,2800,505.70000000000005,external-action,NA,425.9,218,58,same,left,2800,3.4471580313422194,3.44715803134222,2.7038929536325447,0.0019774569903104606,1.0756618221072276,1.1439361057808868
002,1,action,2,right,2800,474.3,external-action,NA,335.2,219,59,different,left,2800,3.4471580313422194,3.44715803134222,2.6760531246518715,0.002108370229812355,0.6014461990774964,0.6919929226353679
002,1,action,2,right,2800,617.6,external-action,NA,367.20000000000005,220,60,same,right,2800,3.4471580313422194,3.44715803134222,2.7907072873276797,0.0016191709844559584,2.7656213194647705,2.5532531795342575
002,1,action,2,right,2800,501.2,external-action,NA,447.6,221,61,same,right,2800,3.4471580313422194,3.44715803134222,2.7000110623221123,0.0019952114924181963,1.0077009844118832,1.0809186814755987
002,1,action,2,left,2800,417.9,external-action,NA,376.7,222,62,different,right,2800,3.4471580313422194,3.44715803134222,2.621072371143626,0.0023929169657812875,-0.2503296333708101,-0.2005476446757908
002,1,action,2,left,2800,452.90000000000003,external-action,NA,351.5,223,63,same,left,2800,3.4471580313422194,3.44715803134222,2.656002320682957,0.00220799293442261,0.27825465981519626,0.3664943652760948
002,1,action,2,right,2800,504.70000000000005,external-action,NA,371.7,224,64,different,left,2800,3.4471580313422194,3.44715803134222,2.703033304733686,0.001981375074301565,1.0605594137304846,1.1299808311271702
